DT,Velocity X,Velocity Y,Velocity Z,Acceleration X,Acceleration Y,Acceleration Z,Angle X,Angle Y,Angle Z
0.0339093,-0.1327435,0.1777621,0.1535067,-0.05169779,0.03783701,-1.00302,-0.04545495,0.1073745,-0.006489195
0.0268944,0.164526,0.234541,-0.1909253,-0.04803768,0.03712006,-1.002858,-0.04103012,0.1136824,-0.01162402
0.0269282,0.1041466,0.0997627,0.08520254,-0.04638032,0.0390555,-0.9990243,-0.03822564,0.1163688,-0.009329665
0.0229456,-0.6795655,0.1925927,0.9096006,-0.04928437,0.04150366,-1.001985,-0.05381867,0.1207879,0.01154167
0.0259306,-0.1258193,0.264215,0.4090176,-0.05228159,0.03882895,-1.005717,-0.05708124,0.1276392,0.02214774
0.029887,0.8547,-0.05766372,-0.5256134,-0.04809967,0.04136571,-0.9987841,-0.03153683,0.1259158,0.006438732
0.0289227,-0.2247066,0.06364655,-0.04175383,-0.04793548,0.04237075,-1.002943,-0.03803595,0.1277566,0.005231099
0.0279255,0.08168539,0.1327615,0.1346484,-0.04940502,0.03881168,-1.001147,-0.03575484,0.1314641,0.008991224
0.0249575,-0.1147132,0.1067936,0.08643247,-0.04785508,0.03916448,-0.9980609,-0.0386178,0.1341294,0.01114836
0.0279324,-0.9300937,0.08063691,0.3253295,-0.05059029,0.04078489,-1.004947,-0.06459755,0.1363818,0.02023559
0.027915,-0.05672621,0.05199337,0.1061347,-0.05154952,0.03907719,-1.005829,-0.06618106,0.1378331,0.02319834
0.0259102,0.8181395,0.009470285,-0.499836,-0.04988248,0.037592,-1.001651,-0.0449829,0.1380785,0.01024749
0.0239686,0.1221145,0.1411028,-0.1324678,-0.04635946,0.03894572,-1.000863,-0.04205598,0.1414606,0.007072425
0.028892,-0.5579689,0.2827859,0.5241389,-0.05167051,0.03748636,-1.005351,-0.05817682,0.1496308,0.02221585
0.02992,0.3420155,0.303014,-0.3692265,-0.04769447,0.04004499,-1.001853,-0.04794371,0.158697,0.01116859
0.0299403,0.294771,0.3178246,-0.1354561,-0.04781729,0.03992155,-1.001732,-0.03911818,0.1682128,0.007112992
0.0249326,-0.1214663,0.3471979,0.1539761,-0.05026125,0.0397853,-1.001273,-0.04214665,0.1768693,0.01095202
0.026892,-0.7107686,0.394124,0.0002891486,-0.04673329,0.04126438,-1.000975,-0.06126064,0.1874681,0.01095979
0.0289563,-0.4369963,0.8459822,0.2663543,-0.04839168,0.04263241,-1.005888,-0.07391444,0.2119646,0.01867243
0.0269225,0.6274014,0.602842,-0.1582294,-0.0477925,0.03883515,-1.003578,-0.05702323,0.2281946,0.0144125
0.025931,0.4824941,0.5173398,-0.3577217,-0.04578193,0.03917374,-0.9980356,-0.04451167,0.2416098,0.005136413
0.0319404,-0.6588528,0.9607221,-0.1372496,-0.04620316,0.04055787,-1.004528,-0.06555569,0.2722956,0.0007526046
0.0249393,0.3851581,0.7047412,0.1001708,-0.04538088,0.03956374,-1.001338,-0.05595012,0.2898713,0.003250795
0.0248989,0.5116833,0.412542,0.5007313,-0.04673358,0.03930622,-1.000253,-0.04320977,0.3001432,0.01571845
0.0269556,0.2299803,0.8918818,0.1409431,-0.04733986,0.03979509,-1.000747,-0.03701051,0.3241844,0.01951766
0.0239426,0.2383017,1.556761,-0.4124013,-0.04416432,0.04030165,-1.001318,-0.03130495,0.3614573,0.0096437
0.0239508,-0.1815986,1.403949,0.2175461,-0.04111642,0.04019236,-1.001159,-0.03565438,0.395083,0.0148541
0.0219295,-0.1558476,1.077781,0.9670015,-0.04558208,0.03909894,-1.005021,-0.03907204,0.4187182,0.03605996
0.0248828,0.6222593,0.7439439,0.5838735,-0.04683591,0.03882803,-1.001851,-0.02358849,0.4372296,0.05058837
0.0289485,0.5920987,1.239955,-0.3873182,-0.04500255,0.04018478,-1.002677,-0.00644812,0.4731244,0.03937609
0.0249397,0.8185155,1.665581,-0.8077873,-0.04101062,0.04116214,-1.000048,0.01396541,0.5146635,0.01923012
0.0279277,0.1775595,1.549652,-0.4263682,-0.03940085,0.03983785,-1.001753,0.01892424,0.5579417,0.007322633
0.0248963,0.114235,1.185546,0.4306701,-0.04010219,0.03973055,-1.004459,0.02176827,0.5874574,0.01804473
0.0219778,0.6801644,0.8714945,0.6726899,-0.0415691,0.03788629,-1.003509,0.03671679,0.606611,0.03282897
0.0239028,0.8427143,0.643504,0.3719153,-0.0386569,0.03544305,-1.001284,0.05686001,0.6219925,0.04171878
0.0229743,0.3528056,1.128655,0.4857628,-0.04146905,0.0355485,-1.000705,0.06496548,0.6479226,0.05287885
0.0259333,-0.2570682,1.532172,-0.3540804,-0.0406188,0.03775299,-1.00117,0.05829885,0.6876569,0.04369637
0.0238962,-0.7585555,1.380799,-0.6569436,-0.03623658,0.03874674,-1.000742,0.04017226,0.7206528,0.02799792
0.0279491,-1.204028,0.9285591,0.5930862,-0.03790462,0.03912996,-1.004436,0.006520767,0.7466052,0.04457414
0.0249371,-0.5656393,0.6336058,0.8589296,-0.03962355,0.03862583,-1.003235,-0.007584636,0.7624055,0.06599335
0.0229099,-0.1958698,0.6319084,0.2995332,-0.03881985,0.04055746,-0.9994122,-0.01207199,0.7768824,0.07285563
0.0249675,-1.060303,0.8907781,0.1829827,-0.03611532,0.04094961,-1.00146,-0.0385451,0.7991229,0.07742425
0.0239374,-1.076158,1.257872,0.3327758,-0.03850845,0.03900844,-1.004935,-0.06430551,0.8292331,0.08539004
0.0219067,-0.2427235,1.398386,-0.08245807,-0.03646216,0.04095945,-1.003181,-0.06962278,0.8598672,0.08358365
0.0239368,0.2097737,2.011147,-0.1123096,-0.03586893,0.04168644,-1.001943,-0.06460147,0.9080076,0.08089532
0.02397,0.3606352,2.550142,-0.1463784,-0.03693607,0.03851818,-1.003571,-0.05595705,0.9691344,0.07738663
0.0259304,0.3731258,1.886738,-0.7860215,-0.03064574,0.03839325,-0.9988373,-0.04628175,1.018058,0.05700478
0.0288884,-0.7523025,1.424369,0.3349623,-0.03073432,0.04024847,-1.002503,-0.06801456,1.059206,0.0666813
0.0299617,-0.04297403,3.37061,0.5610876,-0.03823329,0.04037452,-1.008232,-0.06930213,1.160195,0.08349244
0.0278854,1.899383,2.995365,-1.248318,-0.02927346,0.04257857,-1.003082,-0.01633709,1.243722,0.0486826
0.0249616,1.06892,1.521535,-0.05011678,-0.02307519,0.03806569,-0.9994829,0.01034486,1.281702,0.0474316
0.0239705,-0.2518561,1.315615,1.645805,-0.0301407,0.03681498,-0.9998227,0.004307739,1.313238,0.08688236
0.029884,-0.2528052,3.008337,0.5263402,-0.03155169,0.04002183,-1.005701,-0.003247092,1.403139,0.1026115
0.0279261,0.6638956,3.701279,-0.2918363,-0.02303586,0.04114879,-1.004119,0.01529292,1.506502,0.09446166
0.0259313,1.08373,1.766039,0.9086937,-0.02228599,0.03663519,-1.004141,0.04339545,1.552297,0.1180253
0.0299213,1.131173,2.231979,1.144203,-0.03202829,0.03317347,-1.004284,0.07724162,1.619081,0.1522613
0.0448843,-1.680748,30.3394,-4.505206,-0.009298176,0.03349875,-1.019327,0.001802407,2.980844,-0.04995172
0.0349462,-3.688713,47.82884,-4.00487,0.01886483,0.04355765,-0.9888831,-0.1271041,4.65228,-0.1899067
0.0348885,-1.418167,17.37249,0.9104567,0.04627787,0.04618509,-0.9980924,-0.1765818,5.25838,-0.1581423
0.0348824,1.726118,-1.089053,4.856441,0.0309264,0.03457272,-1.006449,-0.1163707,5.220391,0.01126209
0.0279238,2.23382,3.355928,1.671647,0.01665974,0.03242962,-1.006025,-0.05399394,5.314102,0.05794082
0.0259309,0.8152491,12.7677,-3.086632,0.04033507,0.03834628,-0.9983413,-0.0328538,5.64518,-0.02209831
0.0259517,-2.352082,23.40953,-1.262194,0.06125254,0.04305507,-0.9944994,-0.09389434,6.252697,-0.05485439
0.0239445,-0.8785926,10.04019,1.690344,0.06621253,0.04300397,-1.001794,-0.1149318,6.493104,-0.01437993
0.0248996,1.5532,2.18259,3.649094,0.05634553,0.03765516,-1.012002,-0.07625774,6.54745,0.07648104
0.0249598,1.906031,18.31482,1.237515,0.04523014,0.03203873,-1.019531,-0.02868359,7.004584,0.1073692
0.0259027,-2.481757,49.36452,-4.918612,0.08178546,0.0390131,-0.9968516,-0.09296779,8.283258,-0.02003614
0.0299205,-4.39978,47.40419,-4.996475,0.1251183,0.0507593,-0.9711146,-0.2246114,9.701615,-0.1695332
0.0259293,-2.966029,18.78613,0.6922892,0.1410584,0.04875267,-0.9889533,-0.3015185,10.18873,-0.1515826
0.0239271,-0.952286,1.195198,5.066734,0.1310072,0.04343886,-1.004557,-0.3243039,10.21732,-0.03035033
0.0249348,2.197575,2.213817,4.185709,0.1134463,0.04066822,-1.003809,-0.2695078,10.27253,0.07401948
0.0239083,4.028241,4.885361,0.6322952,0.1296083,0.0423461,-0.9880337,-0.1731994,10.38933,0.08913659
0.0229765,2.366549,2.197307,1.183133,0.1344457,0.04063008,-0.9836964,-0.1188244,10.43981,0.1163208
0.0249046,-0.682658,0.1117472,2.762898,0.1329784,0.03494277,-0.9923339,-0.1358257,10.4426,0.1851297
0.0299191,-0.4013132,11.67351,1.608768,0.1252858,0.03761862,-1.014473,-0.1478326,10.79186,0.2332626
0.0269617,-0.5109413,35.70121,-2.07543,0.1374423,0.04352375,-1.012936,-0.1616085,11.75442,0.1773055
0.0249708,1.031828,26.65159,-3.380508,0.1661697,0.04964199,-0.9769966,-0.1358429,12.41993,0.09289147
0.0279225,1.576514,2.423454,1.743082,0.1820566,0.03818045,-0.9866885,-0.0918227,12.4876,0.1415627
0.0258949,1.297516,1.724166,5.358723,0.1522873,0.03542043,-0.9958955,-0.05822365,12.53225,0.2803262
0.0249597,1.74946,10.52523,0.7144338,0.1560489,0.03909716,-0.9954566,-0.01455767,12.79496,0.2981583
0.0239086,0.00391003,21.76312,-2.847584,0.1874404,0.04071199,-0.9781477,-0.01446418,13.31528,0.2300766
0.0239344,-0.5443814,15.1681,-0.8785436,0.2012616,0.03773879,-0.9805741,-0.02749363,13.67832,0.2090491
0.0279601,-0.2339796,2.410746,3.878175,0.1843134,0.03504575,-0.9910954,-0.03403572,13.74573,0.3174833
0.0239372,-0.2156355,10.95502,2.166667,0.1804326,0.03181043,-1.002932,-0.03919743,14.00796,0.3693472
0.0239374,-0.960991,32.67136,-2.228562,0.1998914,0.04860671,-0.9818641,-0.06220106,14.79003,0.3160013
0.0239005,-0.9886385,38.7073,-3.845242,0.2218346,0.04544511,-0.9687482,-0.08583001,15.71515,0.2240981
0.021977,0.8148241,19.05326,-1.542119,0.2422641,0.03713072,-0.9712535,-0.06792262,16.13388,0.1902069
0.0239094,1.259619,1.547298,4.014923,0.2329403,0.03174446,-0.9754493,-0.03780589,16.17088,0.2862013
0.0229711,0.4854393,4.354308,4.213788,0.2150892,0.03587084,-0.9839733,-0.02665482,16.2709,0.3829966
0.0239362,0.8001869,12.76643,-1.503397,0.2154345,0.04234586,-0.9844148,-0.007501382,16.57648,0.347011
0.0249001,-0.1212218,17.62174,-4.955447,0.2545272,0.038744,-0.966803,-0.01051982,17.01526,0.2236199
0.0278934,0.3203428,5.541889,0.3241597,0.258852,0.03128309,-0.9801627,-0.001584367,17.16985,0.2326618
0.0269294,0.5569299,15.87759,1.50275,0.2337303,0.03520935,-0.9819124,0.01341342,17.59742,0.27313
0.0329445,-0.6576607,37.30133,-4.766306,0.2723131,0.04554265,-0.967275,-0.008252879,18.8263,0.1161064
0.026894,1.174048,21.94598,-3.046498,0.3015571,0.03836548,-0.951156,0.02332198,19.41651,0.03417388
0.0259292,1.637472,2.436326,2.652297,0.2985811,0.03276665,-0.9557663,0.06578032,19.47968,0.1029458
0.0229728,-0.007785091,2.300031,5.151799,0.2761971,0.03607685,-0.9731767,0.06560148,19.53252,0.2212971
0.0258951,0.825193,11.29984,1.023934,0.2757669,0.0405642,-0.9689834,0.08696993,19.82513,0.2478119
0.025906,0.7921306,16.05137,-2.16945,0.3024944,0.03467553,-0.9463896,0.1074909,20.24096,0.1916102
0.0329125,-0.6150938,3.577821,1.675239,0.3103802,0.03084325,-0.9522037,0.08724658,20.35871,0.2467465
0.0309565,-1.638544,12.72711,3.77143,0.2950948,0.03530176,-0.9722165,0.036523,20.7527,0.3634967
0.0329109,0.002311506,26.42982,-1.272835,0.3235501,0.03939471,-0.9440169,0.03659908,21.62253,0.3216066
0.0279236,-0.1872325,10.79936,1.361585,0.3397585,0.03309693,-0.9405534,0.03137087,21.92409,0.3596269
0.0249254,-0.9533179,3.313915,4.673158,0.3247412,0.02697394,-0.9480106,0.007609041,22.00669,0.4761073
0.0268993,-1.057151,20.35674,-0.2446576,0.3105912,0.04289021,-0.9644983,-0.02082758,22.55427,0.4695261
0.0299538,-0.9180137,43.25829,-7.515498,0.3573589,0.04316079,-0.9364699,-0.04832558,23.85002,0.2444084
0.0249576,-0.02999911,35.90169,-4.700515,0.3936406,0.04345864,-0.9197234,-0.04907429,24.74604,0.1270948
0.0229502,0.7878929,13.56784,2.288657,0.3835727,0.03708265,-0.922464,-0.03099199,25.05742,0.17962
0.0239,0.7009214,5.816537,4.770183,0.3732138,0.03478853,-0.9333928,-0.01423997,25.19644,0.2936274
0.0229695,0.4109631,14.18572,1.682135,0.3726178,0.03577309,-0.9349867,-0.004800349,25.52228,0.3322651
0.0239392,0.3497341,16.69787,-0.448449,0.3931256,0.03768848,-0.9152341,0.003572005,25.92201,0.3215296
0.022933,0.01163395,5.651543,0.9915053,0.3997612,0.03199663,-0.9176441,0.003838806,26.05162,0.3442678
0.0259332,-0.5094722,6.651589,2.256097,0.3864008,0.03179784,-0.9336206,-0.009373438,26.22412,0.4027756
0.0259038,-0.4975843,24.51992,-0.9680097,0.3915122,0.0378107,-0.9347427,-0.02226276,26.85927,0.3777005
0.0269641,1.763186,30.60761,-3.753766,0.4230447,0.0457279,-0.9104016,0.02527998,27.68458,0.2764835
0.0269168,2.253865,15.04463,-0.3427665,0.432501,0.03325449,-0.9008116,0.0859468,28.08953,0.2672574
0.0229114,1.466884,9.148383,1.459069,0.431471,0.03267857,-0.9067118,0.1195552,28.29914,0.3006867
0.0239375,1.197784,10.20725,1.817102,0.4356208,0.03624798,-0.9082301,0.1482271,28.54347,0.3441835
0.0239694,1.602825,14.74336,1.000035,0.4299152,0.03244456,-0.9093065,0.1866459,28.89686,0.3681538
0.0239023,1.645623,24.81704,-2.211885,0.4395687,0.03328278,-0.900235,0.22598,29.49004,0.3152846
0.0249663,1.543195,23.36264,-2.846952,0.4658904,0.03441678,-0.8875265,0.2645079,30.07332,0.2442067
0.0249007,1.242308,10.90051,0.2005312,0.4721402,0.03353314,-0.8788761,0.2954422,30.34475,0.2492001
0.0289235,0.7815636,4.776148,2.198446,0.4619756,0.03287413,-0.8969007,0.3180478,30.4829,0.3127868
0.0259664,0.9361523,17.59729,-0.1777487,0.468465,0.03003096,-0.8871576,0.3423563,30.93983,0.3081714
0.0239349,1.12744,15.94942,-0.5617383,0.4811138,0.03231902,-0.8737496,0.3693415,31.32158,0.2947262
0.0269178,-0.004993079,4.375424,1.787476,0.4877478,0.03176591,-0.8778402,0.3692071,31.43936,0.3428411
0.0229339,-0.2033371,3.127875,3.299591,0.4837167,0.02814576,-0.8869849,0.3645437,31.51109,0.4185136
0.0259423,0.1078975,12.91112,2.032412,0.4791962,0.02848775,-0.8864248,0.3673429,31.84604,0.4712391
0.0229033,0.2523275,17.28241,0.04381726,0.4875014,0.03372134,-0.87832,0.373122,32.24186,0.4722426
0.023939,0.1853428,11.02747,-0.3792656,0.5016462,0.03065109,-0.8659113,0.3775589,32.50584,0.4631634
0.0289196,-0.1850578,2.544323,0.547462,0.493579,0.0238242,-0.8729209,0.3722071,32.57943,0.4789958
0.0309546,-0.06156631,13.51267,-1.31032,0.4989761,0.03402404,-0.8792815,0.3703013,32.9977,0.4384353
0.0248975,1.897842,18.66486,-2.181131,0.5113387,0.03836583,-0.8627983,0.4175529,33.46241,0.3841306
0.0239352,2.970376,10.1455,-0.828733,0.5170158,0.02624343,-0.8534969,0.4886494,33.70525,0.3642947
0.0239023,1.59411,4.489799,0.67048,0.5156162,0.02321612,-0.8581928,0.5267523,33.81256,0.3803207
0.0219763,1.266928,7.854878,0.2570088,0.5138469,0.02826151,-0.8654116,0.5545947,33.98519,0.3859688
0.0249311,1.392825,18.39507,-1.258318,0.525564,0.02947031,-0.855577,0.5893193,34.4438,0.3545976
0.0258973,1.942774,16.73878,-0.7214719,0.5338845,0.03055244,-0.8473781,0.6396319,34.87729,0.3359134
0.0299479,1.36541,8.648672,1.238629,0.5365461,0.02369856,-0.8429803,0.6805231,35.1363,0.3730077
0.0259345,0.5585676,3.685412,1.380493,0.5375799,0.02275909,-0.8478772,0.6950093,35.23188,0.4088101
0.025924,-0.9940767,12.09109,1.125548,0.5440144,0.02962346,-0.847629,0.6692389,35.54533,0.4379888
0.0219525,-0.3246424,11.22342,1.52679,0.5470225,0.02961247,-0.8439151,0.6621122,35.79171,0.4715057
0.0239358,0.5556965,6.360883,2.224604,0.5466408,0.02103507,-0.8394436,0.6754132,35.94397,0.5247534
0.0219371,-0.08232415,7.234066,1.7271,0.5470303,0.01884833,-0.8408023,0.6736072,36.10266,0.562641
0.024903,-0.5549237,8.540923,0.6578431,0.5511289,0.02703701,-0.8393475,0.659788,36.31536,0.5790232
0.021995,-0.1316584,5.841051,0.02754622,0.5528046,0.02372148,-0.835305,0.6568921,36.44383,0.5796291
0.0268757,-0.4590507,9.598454,-0.7346054,0.5573791,0.02280026,-0.8405264,0.6445548,36.7018,0.5598861
0.0259639,1.066257,10.28094,-0.6433321,0.5652996,0.02765368,-0.8305904,0.672239,36.96873,0.5431827
0.0229414,1.406973,7.420243,0.09330135,0.5686844,0.02287838,-0.8261693,0.7045169,37.13896,0.5453231
0.0239358,0.9108897,5.514958,0.8284057,0.5661358,0.02116114,-0.8267025,0.7263198,37.27097,0.5651517
0.0229355,-0.01106252,6.679081,0.6105514,0.566714,0.02053298,-0.8236353,0.7260661,37.42415,0.579155
0.0258974,-1.119827,8.955797,0.103319,0.570276,0.02031937,-0.8257999,0.6970655,37.65609,0.5818307
0.0299539,-0.3608322,9.785057,0.3095948,0.5783862,0.02998684,-0.8236732,0.6862571,37.94919,0.5911043
0.0309197,0.1863831,8.086725,0.6401662,0.5796031,0.02387201,-0.8212491,0.6920201,38.19923,0.610898
0.0318771,0.1465915,12.78582,0.2605599,0.5819917,0.0242196,-0.8168048,0.6966929,38.6068,0.6192039
0.0269525,0.61454,11.58884,-0.6611945,0.5879997,0.02994428,-0.8106859,0.7132564,38.91915,0.6013831
0.0239453,0.3104518,6.80493,-0.4070852,0.5976106,0.02018336,-0.8049977,0.7206903,39.08209,0.5916353
0.0239018,0.001049645,2.626694,0.3682826,0.5944714,0.01774078,-0.807014,0.7207153,39.14487,0.6004379
0.0249334,-0.448323,13.95026,0.4194719,0.593929,0.01961432,-0.8137494,0.7095371,39.4927,0.6108968
0.0229374,0.2349851,20.93545,-0.9981313,0.6021101,0.03064695,-0.7965355,0.7149271,39.97291,0.5880022
0.0229398,1.059458,9.452575,-0.9560764,0.6175352,0.02700701,-0.7893859,0.7392308,40.18975,0.56607
0.0239357,0.09691203,0.7209334,1.254642,0.6115277,0.01271641,-0.7924995,0.7415504,40.207,0.5961007
0.0268998,-1.039212,6.026568,0.0707122,0.6021397,0.02107035,-0.8067751,0.7135959,40.36912,0.5980029
0.0239348,-0.9010971,18.0098,-2.96321,0.6182105,0.0374511,-0.7989892,0.6920283,40.80018,0.527079
0.0219069,1.435774,14.81044,-3.019286,0.6283955,0.03506309,-0.7817209,0.7234817,41.12463,0.4609359
0.0249687,2.508207,4.081979,-0.7482467,0.6278177,0.0210067,-0.7796186,0.7861083,41.22655,0.4422531
0.0239361,1.941402,6.968314,-0.2064179,0.6139939,0.01714915,-0.7964839,0.8325779,41.39334,0.4373123
0.0248995,2.102108,18.55959,-3.078311,0.622826,0.02808702,-0.78294,0.8849193,41.85547,0.3606639
0.0219399,1.625879,16.12761,-3.857424,0.6427516,0.02450948,-0.7637227,0.9205909,42.20931,0.2760324
0.0249359,-0.6042648,2.115489,1.466145,0.6508169,0.02382114,-0.764855,0.9055231,42.26206,0.312592
0.030917,-2.151067,1.150241,4.667936,0.6255854,0.01823286,-0.786284,0.8390185,42.29762,0.4569106
0.0239361,0.8779892,2.413954,0.4899382,0.6324569,0.02438378,-0.7702229,0.8600342,42.3554,0.4686378
0.0259309,-0.08952128,0.7682815,-1.416676,0.6407307,0.02232908,-0.7676848,0.8577128,42.37532,0.4319021
0.0249334,-1.47804,0.07373497,-0.2062876,0.6398966,0.0216759,-0.7802023,0.8208603,42.37716,0.4267587
0.0229725,0.002357001,3.455127,-0.01891542,0.636845,0.0220277,-0.7801145,0.8209144,42.45654,0.4263241
0.0248994,0.500248,9.585604,-1.158896,0.6418059,0.03162088,-0.7689559,0.8333703,42.69521,0.3974683
0.0219416,1.398482,4.885748,-1.096693,0.6500809,0.02589566,-0.7652174,0.8640552,42.80241,0.3734051
0.0289556,0.8709465,1.556486,0.6803807,0.6454181,0.01283674,-0.7690415,0.889274,42.84748,0.3931059
0.0308849,-0.05942167,12.16646,-0.3054534,0.6431615,0.02845367,-0.7690839,0.8874388,43.22324,0.383672
0.0279257,1.909846,6.485985,-1.322937,0.6673161,0.02396559,-0.7569308,0.9407725,43.40437,0.3467281
0.0299118,0.7196385,0.3897361,2.771303,0.652358,0.01621432,-0.758147,0.9622982,43.41602,0.4296228
0.0278991,-0.9040704,4.719863,2.039999,0.6505405,0.01445071,-0.769581,0.9370754,43.5477,0.4865369
0.0249705,-0.7685722,8.670338,-0.7923483,0.6503793,0.02879352,-0.7601681,0.9178838,43.76421,0.4667515
0.0238985,0.5607091,2.079891,-2.132828,0.6614126,0.02855954,-0.7541517,0.9312839,43.81391,0.4157802
0.0229753,-0.2544242,-0.4202193,0.1209493,0.6568218,0.01113864,-0.7629082,0.9254384,43.80426,0.418559
0.032911,0.4336587,5.064231,-0.2154472,0.6513192,0.02718545,-0.7563679,0.9397106,43.97092,0.4114684
0.0299206,0.1365309,5.178363,-1.319672,0.6689289,0.03089144,-0.7508571,0.9437956,44.12587,0.3719831
0.030956,0.17945,0.6976023,1.201359,0.6596662,0.01403892,-0.7564796,0.9493507,44.14746,0.4091724
0.0298813,-0.1345903,1.74222,-0.2043114,0.6565182,0.02754885,-0.7523796,0.945329,44.19952,0.4030673
0.0299248,-0.04919487,0.3542418,-1.129539,0.6653191,0.0255201,-0.7533897,0.9438568,44.21012,0.369266
0.0259265,-0.3138193,-0.03185184,0.692122,0.6646013,0.01732617,-0.7517388,0.9357206,44.2093,0.3872103
0.0219453,-1.047095,1.448514,1.428566,0.661971,0.0171012,-0.7564303,0.9127417,44.24109,0.4185607
0.025922,-1.436854,7.912251,-0.5058715,0.6585179,0.02428279,-0.7555648,0.8754956,44.44619,0.4054475
0.0268999,0.03421923,7.161058,-2.326503,0.6734645,0.03170927,-0.7422158,0.8764161,44.63882,0.3428648
0.0249326,-0.2702285,0.9571636,0.5262133,0.6730778,0.02148866,-0.7476845,0.8696786,44.66268,0.3559846
0.0239707,-0.04510991,0.7301452,1.693538,0.6559844,0.0191482,-0.7562439,0.8685973,44.68018,0.3965799
0.0219587,1.896848,1.678748,-1.449314,0.661032,0.02340934,-0.7510048,0.9102497,44.71704,0.3647549
0.0249195,1.952468,0.04941726,-2.740146,0.6796874,0.02684409,-0.7407027,0.9589041,44.71828,0.2964718
0.0238997,0.02625224,-1.510962,0.1820194,0.6784507,0.02041556,-0.7478716,0.9595315,44.68217,0.300822
0.0239734,-0.331864,1.116207,1.499034,0.6617688,0.01741933,-0.7493211,0.9515756,44.70893,0.336759
0.0258973,-0.1657346,7.319372,-1.013035,0.6622026,0.02509844,-0.747179,0.9472836,44.89848,0.3105241
0.0249485,-0.30353,7.214711,-2.22835,0.6815817,0.03489515,-0.7384177,0.939711,45.07848,0.2549301
0.026911,-0.3302477,0.3986022,0.4173215,0.6779218,0.02014381,-0.7440801,0.9308237,45.0892,0.2661607
0.023938,0.7830549,2.116142,0.4079232,0.6685654,0.01860454,-0.757688,0.9495685,45.13986,0.2759255
0.0289536,1.7497,8.683713,-2.209678,0.6771584,0.03497795,-0.7355291,1.000229,45.39128,0.2119474
0.028913,1.192352,-0.09295368,-0.2155398,0.6867002,0.01986394,-0.732698,1.034703,45.38859,0.2057155
0.0299151,-0.3974836,0.2344127,1.675156,0.6673145,0.0167938,-0.7432517,1.022812,45.3956,0.255828
0.0308961,0.7097775,1.534901,-1.645416,0.6812295,0.02743695,-0.7370025,1.044742,45.44303,0.204991
0.0319153,-0.1780177,-1.012032,0.8390144,0.6902344,0.02183625,-0.7331316,1.03906,45.41073,0.2317684
0.02796,-1.060558,-0.2268638,3.033924,0.6655568,0.01658412,-0.7496485,1.009407,45.40438,0.3165969
0.024932,2.427529,2.897634,-2.050672,0.6751293,0.02192511,-0.7568498,1.06993,45.47663,0.2654696
0.0229363,1.693497,11.12644,-3.973231,0.6894424,0.02632443,-0.7293105,1.108773,45.73183,0.1743383
0.0249111,0.5287234,3.921011,-0.679979,0.695926,0.02898458,-0.7210005,1.121944,45.8295,0.1573993
0.0239692,-0.5929418,-0.4758047,2.132031,0.6798524,0.01646887,-0.7408949,1.107731,45.8181,0.2085024
0.0279282,0.7823511,0.8750075,0.3914706,0.6746328,0.02177149,-0.7340575,1.129581,45.84253,0.2194355
0.0248959,0.6916535,0.2440745,-1.617027,0.6866249,0.02605955,-0.7281208,1.1468,45.84861,0.1791781
0.028924,-0.6350318,-1.787499,-0.0422458,0.6902772,0.0192923,-0.7360905,1.128433,45.79691,0.1779562
0.0249342,-0.166106,0.02283134,1.392946,0.676714,0.01586237,-0.7436339,1.124291,45.79748,0.2126882
0.0259287,2.116073,2.626083,-1.92552,0.6743956,0.02520088,-0.7358754,1.179158,45.86557,0.162762
0.0229396,2.073441,4.130664,-4.268765,0.6846271,0.02920436,-0.725059,1.226722,45.96033,0.06483824
0.0249327,0.5679979,2.606855,-1.422573,0.6979236,0.02388162,-0.7233404,1.240884,46.02532,0.02936965
0.0229743,-0.7964776,1.402382,2.091321,0.6913611,0.01696379,-0.7340096,1.222585,46.05754,0.07741629
0.0219774,-0.0872471,4.843765,1.620317,0.6792682,0.02081392,-0.7337626,1.220668,46.16399,0.1130266
0.0219419,0.5136957,5.258724,-0.6136562,0.6863846,0.03112722,-0.7192632,1.231939,46.27938,0.09956186
0.0268905,-0.328444,-0.4366829,-0.6658719,0.6972882,0.02349627,-0.7208992,1.223107,46.26764,0.08165623
0.0279249,-1.900397,-1.070439,1.280154,0.6881877,0.01829413,-0.7342843,1.170039,46.23775,0.1174044
0.0229008,-0.2385259,0.949868,0.4037728,0.6857301,0.02426832,-0.7347632,1.164576,46.2595,0.1266511
0.0259319,1.000668,0.1724251,0.1604834,0.6958578,0.02779279,-0.7254223,1.190526,46.26397,0.1308128
0.0239361,-0.4651624,-1.232113,1.787483,0.681447,0.01640843,-0.730702,1.179391,46.23448,0.1735981
0.0219793,-1.001831,0.9528105,-0.3339786,0.6806499,0.01790727,-0.7363399,1.157372,46.25542,0.1662575
0.0248947,0.254804,2.04262,-3.146453,0.6934167,0.02729113,-0.7250878,1.163715,46.30627,0.08792753
0.0249572,-0.4309756,-0.2128782,-0.6603904,0.704771,0.02649295,-0.7258132,1.152959,46.30096,0.07144603
0.0229417,-0.8157534,-1.532156,3.553083,0.6879289,0.01963015,-0.7334201,1.134244,46.26581,0.1529598
0.0318906,1.529163,0.5934672,-0.1924608,0.6770641,0.01896312,-0.7323312,1.18301,46.28473,0.1468221
0.030917,0.9339066,0.9826489,-3.487007,0.7000727,0.02484262,-0.7195077,1.211884,46.31511,0.0390143
0.0269295,-2.402041,-0.993565,0.7386529,0.6966394,0.0245221,-0.728745,1.147198,46.28836,0.05890585
0.0259289,-1.277549,0.8115581,1.18447,0.6799473,0.02183754,-0.7403664,1.114073,46.3094,0.08961787
0.0249691,2.327088,1.223616,-1.675877,0.6908936,0.02632358,-0.7281896,1.172178,46.33995,0.04777273
0.0239359,1.50827,-0.3717923,-0.5660424,0.6977652,0.02447096,-0.7202738,1.20828,46.33105,0.03422399
0.0239271,-1.216158,-2.244168,2.295107,0.6924874,0.02388829,-0.7280644,1.179181,46.27736,0.08913924
0.0219144,-1.10023,-1.120544,2.406012,0.6815005,0.02072378,-0.7370455,1.15507,46.2528,0.1418655
0.0299447,1.360354,2.076274,-0.9381119,0.6880866,0.02312803,-0.7268975,1.195805,46.31497,0.1137741
0.0279003,0.05778126,-0.1232594,-0.8664314,0.6932828,0.02214365,-0.7221831,1.197417,46.31153,0.08960037
0.025932,-1.53748,-1.433626,0.6665745,0.6862416,0.02073599,-0.7356394,1.157547,46.27435,0.106886
0.0219757,-0.3446221,-0.1492087,0.356855,0.6927559,0.0218239,-0.7295463,1.149974,46.27107,0.1147281
0.0239356,-0.001863218,-1.326921,0.8875026,0.6907603,0.02337924,-0.7261277,1.149929,46.23931,0.135971
0.0279599,0.1696899,-2.639123,0.9785079,0.6805969,0.01958847,-0.7321613,1.154674,46.16552,0.16333
0.0249335,1.300691,-3.126328,-0.9763711,0.6865169,0.02227379,-0.7280257,1.187105,46.08757,0.1389856
0.0269562,1.332582,-6.148839,-1.038519,0.6902012,0.02365183,-0.7307906,1.223026,45.92182,0.1109911
0.0249301,1.564936,-8.003113,0.3580849,0.6832255,0.02343433,-0.73958,1.26204,45.7223,0.1199182
0.0249456,3.175268,-7.86606,0.2924423,0.6835799,0.02085921,-0.7376322,1.341249,45.52608,0.1272134
0.0249372,2.878212,-5.999214,0.6592599,0.6771858,0.01835164,-0.7320888,1.413023,45.37647,0.1436535
0.0219346,0.6413134,-5.607631,0.2166306,0.6720052,0.01445045,-0.736469,1.42709,45.25347,0.1484052
0.0249029,-0.5973959,-4.044983,-0.7806176,0.6733121,0.01609948,-0.7448995,1.412214,45.15274,0.1289655
0.0239696,0.05961888,-2.639576,-1.468823,0.6761678,0.02292265,-0.7408952,1.413643,45.08947,0.09375843
0.0248986,-0.8486308,-2.219572,-0.3326274,0.680556,0.02110534,-0.7399963,1.392513,45.03421,0.08547647
0.0229384,-1.231243,-1.935345,1.362013,0.6712912,0.01967066,-0.7509058,1.36427,44.98981,0.1167189
0.0388959,0.492739,-1.380307,0.2722894,0.6725534,0.01840503,-0.7432994,1.383436,44.93612,0.1273098
0.0329216,0.2394471,-2.68133,0.1648581,0.6693261,0.01769559,-0.7489821,1.391319,44.84785,0.1327372
0.0288883,1.089385,-1.531044,-0.4280072,0.6728637,0.01881335,-0.7494217,1.422789,44.80362,0.1203728
0.024972,1.49548,-2.71218,0.4931562,0.6722091,0.01572425,-0.7443026,1.460134,44.73589,0.1326879
0.0258953,0.5734273,-2.316441,1.089704,0.6650174,0.01655078,-0.7449974,1.474983,44.67591,0.1609061
0.0249331,0.1684308,-2.849588,-0.202851,0.6707805,0.01892044,-0.7485882,1.479183,44.60486,0.1558484
0.0239344,-0.1035985,-3.637781,0.1453831,0.6699423,0.01880357,-0.7499475,1.476703,44.51779,0.1593281
0.0269635,-0.4063074,-2.193336,0.388892,0.6619185,0.01866033,-0.7522526,1.465748,44.45865,0.169814
0.0258969,0.141913,-3.349127,-0.4489985,0.6654458,0.02062853,-0.7520735,1.469423,44.37192,0.1581863
0.0249355,0.7110117,-5.711709,0.1946152,0.6647334,0.01855651,-0.7530771,1.487152,44.2295,0.1630391
0.0259559,0.6939616,-3.868436,0.3349831,0.659259,0.01756113,-0.7540087,1.505165,44.12909,0.1717339
0.0239087,0.5650119,-3.822617,-0.3124773,0.6615028,0.01850627,-0.7477234,1.518674,44.03769,0.164263
0.0229723,-0.2713878,-6.107091,0.03080564,0.6609678,0.01683547,-0.7538702,1.512439,43.8974,0.1649707
0.0239019,-0.6191845,-4.739478,0.2496371,0.6564431,0.01602421,-0.763492,1.497639,43.78412,0.1709375
0.0219668,0.5494664,-3.904011,-0.394332,0.6584536,0.01807597,-0.7585502,1.509709,43.69836,0.1622753
0.0229123,0.5738781,-5.97079,0.1914531,0.6564736,0.01878415,-0.7562405,1.522858,43.56156,0.1666619
0.0269279,-0.6756704,-8.767254,1.760992,0.6538692,0.01551544,-0.7621785,1.504664,43.32547,0.2140817
0.0239382,-0.8433108,-5.459338,1.513251,0.640233,0.01174744,-0.7740153,1.484477,43.19479,0.2503062
0.0239359,0.9025537,-2.415492,-1.017949,0.6504382,0.021609,-0.7629136,1.50608,43.13697,0.2259407
0.0229655,0.9999546,-5.040766,-0.8266689,0.6461059,0.01868742,-0.7671542,1.529045,43.02121,0.2069558
0.0229123,0.5604239,-10.39972,0.08786646,0.6500056,0.01429775,-0.7652983,1.541885,42.78292,0.2089691
0.02294,-0.1223445,-8.257842,0.1667583,0.6346456,0.01528478,-0.7773685,1.539079,42.59349,0.2127945
0.0209766,0.8799616,-4.199402,-1.880114,0.6386342,0.01980895,-0.7756953,1.557537,42.5054,0.1733561
0.0258974,2.068249,-6.704284,-2.410989,0.6370235,0.01831809,-0.7729058,1.611099,42.33178,0.1109177
0.0239339,2.83615,-21.74526,-0.5775344,0.6451664,0.001033775,-0.7751324,1.67898,41.81133,0.09709508
0.0229399,2.656778,-27.24267,1.940995,0.6237738,0.01517604,-0.7868174,1.739926,41.18639,0.1416213
0.0219497,0.8840871,-17.13555,0.7718146,0.6108305,0.01970929,-0.7980983,1.759331,40.81026,0.1585624
0.0239022,1.073839,-12.68274,-0.5894878,0.6193489,0.01851267,-0.795919,1.784998,40.50712,0.1444723
0.0249338,1.232818,-14.92993,0.7558367,0.6091499,0.01156801,-0.7866527,1.815737,40.13486,0.1633182
0.025965,-0.6082075,-17.30261,0.4023947,0.6023933,0.01018604,-0.8037826,1.799945,39.6856,0.1737664
0.0239155,-0.805201,-16.48168,0.8531284,0.5978523,0.01340333,-0.8133768,1.780688,39.29143,0.1941694
0.0269033,-0.04739405,-12.1281,1.634155,0.5929367,0.01666289,-0.8112077,1.779413,38.96514,0.2381336
0.0249671,-0.4756832,-12.77958,1.970785,0.5874182,0.01478427,-0.8078557,1.767537,38.64607,0.2873383
0.0299209,-0.9680459,-18.15232,1.553674,0.5747898,0.006756928,-0.821058,1.738572,38.10294,0.3338257
0.0259254,-0.2934141,-15.43808,0.4290031,0.5746968,0.01240311,-0.8256781,1.730965,37.7027,0.3449478
0.0269276,0.1724211,-18.09611,1.092476,0.5664818,0.01393068,-0.8223354,1.735608,37.21542,0.3743655
0.023924,-0.06545144,-30.57909,2.192485,0.5578833,0.01471186,-0.8171639,1.734042,36.48384,0.4268185
0.0259095,-3.315502,-28.29218,3.337374,0.5514733,0.009844034,-0.8422813,1.648139,35.7508,0.5132882
0.0239734,-4.024908,-9.249085,0.7546785,0.5268515,0.008296869,-0.8651459,1.551648,35.52907,0.5313804
0.024962,0.170373,-4.645411,-3.647757,0.5401464,0.01665517,-0.846172,1.555901,35.41311,0.4403251
0.0298907,1.703676,-24.96545,-0.5386502,0.5393931,0.01321241,-0.843018,1.606825,34.66688,0.4242245
0.031888,0.03937315,-26.77625,3.648711,0.5053389,0.01044712,-0.8727475,1.608081,33.81304,0.5405746
0.0289229,0.844868,-6.550102,-1.306311,0.5084193,0.01566878,-0.8664226,1.632517,33.62359,0.5027922
0.0289503,3.794845,-12.59942,-2.592517,0.5135495,0.01415509,-0.8555838,1.742379,33.25883,0.4277381
0.0268941,3.822798,-25.94858,0.2148067,0.5054917,0.009414185,-0.8641724,1.845189,32.56097,0.4335151
0.0239368,1.84292,-17.20914,-0.02679367,0.4796245,0.009926233,-0.8854445,1.889303,32.14904,0.4328738
0.0249577,2.196571,-5.311864,-3.608918,0.4819222,0.01237238,-0.8845416,1.944124,32.01646,0.3428035
0.0288967,3.558087,-13.60376,-2.799471,0.4924333,0.0141227,-0.8651569,2.046941,31.62336,0.261908
0.0299216,1.264802,-27.67914,2.401166,0.4780583,0.001291456,-0.8731428,2.084786,30.79515,0.3337547
0.0239268,0.01851091,-15.82007,2.254414,0.4525268,0.00504175,-0.9038269,2.085229,30.41663,0.3876956
0.0259296,1.617699,-3.560275,-1.578161,0.4550139,0.009536426,-0.8987399,2.127175,30.32432,0.3467745
0.0229451,3.099033,-11.2599,-1.518573,0.4642409,0.004462459,-0.8821147,2.198283,30.06596,0.3119307
0.0288887,2.96156,-30.65524,2.761862,0.4554398,-0.0007782271,-0.8894901,2.283839,29.18037,0.3917173
0.0279311,-0.5148972,-13.94126,1.539784,0.4199544,0.003861133,-0.9137926,2.269457,28.79097,0.4347252
0.0329337,-0.1468495,-6.606611,-4.450335,0.4464658,0.01169408,-0.8985839,2.264621,28.57339,0.2881592
0.0319292,1.975355,-26.99215,0.8441613,0.4402282,-0.00161033,-0.9032871,2.327692,27.71155,0.3151126
0.0269275,2.43343,-35.44421,5.935625,0.4093466,-0.007370333,-0.9211087,2.393218,26.75713,0.4749441
0.0239053,0.9162453,-22.00204,5.431679,0.3857921,0.006831456,-0.9248522,2.415121,26.23116,0.60479
0.0259692,0.4266002,-14.06306,0.1291324,0.3841371,0.0114818,-0.9092729,2.4262,25.86596,0.6081434
0.0249076,0.4915733,-20.08224,-1.883057,0.4014022,0.001394523,-0.9227384,2.438444,25.36576,0.561241
0.0229457,-0.4648435,-24.14527,2.057909,0.3921452,-0.01215043,-0.930054,2.427778,24.81173,0.6084612
0.0259423,-0.8948538,-12.12542,3.800185,0.3603099,-0.0001081498,-0.9451903,2.404563,24.49717,0.7070467
0.0268899,0.5048074,-3.285685,-1.051767,0.3602369,0.01842483,-0.9232446,2.418137,24.40882,0.6787648
0.0249681,-0.4389331,-14.97181,-3.391,0.3699014,0.01449711,-0.9134704,2.407178,24.035,0.594098
0.0249352,-2.896651,-33.70857,1.021333,0.3709863,-0.0002159467,-0.9400355,2.334949,23.19447,0.6195651
0.0258946,-2.836643,-32.80653,6.795426,0.3418414,-0.009059242,-0.9703601,2.261495,22.34496,0.79553
0.0259439,0.7423512,-7.934794,2.644332,0.314566,0.009665661,-0.9591632,2.280755,22.1391,0.8641343
0.0259533,1.978389,-4.273241,-2.691241,0.3300584,0.007633394,-0.9366796,2.332101,22.02819,0.7942877
0.0249298,-0.1999376,-18.1132,-2.048661,0.332063,-0.0105101,-0.9240324,2.327116,21.57663,0.743215
0.0248997,-2.232515,-33.56335,2.143435,0.3153411,-0.02014027,-0.9744365,2.271527,20.74091,0.7965859
0.0219448,-0.7688712,-28.4679,3.598156,0.293693,-0.005149477,-0.9853834,2.254655,20.11619,0.8755467
0.0279504,2.715968,-16.06163,0.4964517,0.2886556,0.01759261,-0.9572175,2.330567,19.66726,0.8894227
0.0289365,0.446169,-15.01711,-0.3626193,0.285305,0.004571283,-0.9474195,2.343478,19.23272,0.8789298
0.0279162,-1.292313,-22.35433,1.172498,0.2791256,-0.008869576,-0.968303,2.307401,18.60867,0.9116615
0.0259347,-0.7864315,-10.32171,-0.7915721,0.2618034,0.009283669,-0.9745175,2.287005,18.34098,0.8911323
0.0249378,-0.9833646,-4.589252,-3.108454,0.272743,0.01609082,-0.9625699,2.262482,18.22653,0.8136143
0.0229383,-1.584737,-15.92152,-2.963863,0.2534677,0.01458132,-0.9506798,2.226131,17.86132,0.7456284
0.0229515,-3.546548,-25.71964,-3.861128,0.2562601,-0.0007597608,-0.9550419,2.144733,17.27102,0.6570097
0.0239361,-3.694247,-28.34606,-1.293149,0.2547686,-0.005214161,-0.9838964,2.056307,16.59252,0.6260567
0.0289215,1.94486,-25.678,4.027553,0.2263483,0.00231583,-0.9974288,2.112555,15.84988,0.7425396
0.0239719,5.424112,-27.29813,4.552188,0.2119827,0.004861746,-0.9677998,2.242581,15.19549,0.8516642
0.023925,2.302677,-28.38659,3.971618,0.2048244,-0.002612994,-0.9685514,2.297673,14.51634,0.9466851
0.0239077,-2.16162,-23.24583,5.004172,0.1913943,-0.008214517,-0.9982947,2.245994,13.96058,1.066323
0.0229745,-2.903197,-8.308981,3.436362,0.1689133,0.003163067,-0.9988576,2.179294,13.76969,1.145272
0.0249301,-1.137728,-0.4482089,-2.415673,0.1838797,0.01243711,-0.9879471,2.15093,13.75851,1.085049
0.0219421,-1.258746,-1.028054,-3.341568,0.1933373,0.009142473,-0.9817259,2.123311,13.73596,1.011728
0.0259315,-3.356278,-5.282277,-2.378803,0.1839233,0.005537353,-0.9784332,2.036278,13.59898,0.9500422
0.0229399,-3.312465,-8.702056,-1.836945,0.1918897,0.007015906,-0.993403,1.96029,13.39936,0.9079029
0.0278931,-0.06242067,-14.54623,1.005072,0.179496,0.01046345,-0.9878916,1.958549,12.99362,0.9359375
0.0239368,1.395631,-26.90365,2.934712,0.1701823,0.01007679,-0.9728081,1.991956,12.34963,1.006185
0.023967,1.081582,-35.51749,5.452346,0.1582489,0.0001456691,-0.9930019,2.017878,11.49838,1.136861
0.0249405,1.221872,-32.52609,8.081909,0.1360321,0.005785062,-0.993356,2.048352,10.68716,1.338428
0.0248996,-0.3323269,-24.46371,7.679583,0.1202833,0.01133369,-0.9939998,2.040077,10.07803,1.529647
0.0229814,-1.669996,-15.23948,5.291633,0.1117762,-0.001144999,-1.014292,2.001698,9.727802,1.651256
0.0258864,-0.4504717,-9.752337,3.597522,0.1104815,0.01150723,-0.9900728,1.990037,9.475349,1.744383
0.0239378,-1.888063,-9.635865,2.051683,0.1060547,-0.002289617,-0.9929186,1.944841,9.244688,1.793496
0.0289229,-3.093003,-9.816047,1.837522,0.1108518,0.001060503,-0.9977402,1.855383,8.960779,1.846642
0.0249577,-2.591941,-6.681792,2.600178,0.09247294,0.01140163,-1.004879,1.790694,8.794017,1.911536
0.0229469,-0.7885061,-6.488225,0.4809932,0.09528146,0.009825507,-1.004611,1.7726,8.645132,1.922574
0.0248969,-0.1026358,-8.874148,1.555562,0.1001363,0.01343143,-0.9927596,1.770045,8.424193,1.961303
0.0239368,-1.421795,-9.046185,3.390095,0.08880918,0.009840556,-0.9929222,1.736012,8.207657,2.04245
0.0239354,-1.209561,-9.954962,2.283568,0.08658899,0.008420227,-1.001172,1.70706,7.969381,2.097109
0.0219747,-0.464189,-9.779732,1.266658,0.08405527,0.01246359,-1.005097,1.69686,7.754474,2.124943
0.0239706,-0.6776488,-8.790273,2.19628,0.08679736,0.01488568,-1.000267,1.680616,7.543766,2.177589
0.0278904,-1.018142,-18.30295,3.660461,0.07037267,0.01047935,-0.9914262,1.65222,7.033289,2.279681
0.036898,-1.002605,-17.22581,3.783545,0.06092551,0.005727368,-1.017683,1.615226,6.397692,2.419286
0.0299561,-1.771214,-3.775528,3.974375,0.05051433,0.02007,-0.9968726,1.562167,6.284592,2.538343
0.0289233,-4.181693,-5.976051,1.201879,0.04677701,0.006618046,-0.9960303,1.441219,6.111744,2.573105
0.0268976,-3.88303,-17.23666,-0.5178562,0.04622129,0.009902778,-1.013053,1.336775,5.648119,2.559176
0.0229374,-2.728757,-17.99576,0.1956843,0.04094076,0.02189916,-1.003105,1.274184,5.235343,2.563665
0.0239348,-2.883597,-10.95221,1.1013,0.03060708,0.01705043,-1.0154,1.205166,4.973205,2.590024
0.0328771,0.631309,-2.4415,-0.06838611,0.02366231,0.0173173,-1.005186,1.225921,4.892935,2.587776
0.0259307,0.6122837,-5.045862,-0.887503,0.0315946,0.02633858,-0.9977951,1.241798,4.762093,2.564762
0.022973,-1.473724,-6.157626,0.3097669,0.03634653,0.02420385,-0.9856169,1.207942,4.620634,2.571878
0.0239236,-3.86059,-5.285026,1.709995,0.02477143,0.004430647,-1.012616,1.115583,4.494197,2.612788
0.022914,-2.082922,-5.562444,1.336532,0.01851674,0.008419963,-1.010949,1.067855,4.366739,2.643413
0.0229071,0.3047194,-9.211894,0.2390502,0.01832394,0.03130984,-1.001722,1.074835,4.155722,2.648889
0.0239704,-0.4646869,-10.37546,0.4300694,0.01779927,0.03390453,-0.9883499,1.063697,3.907018,2.659198
0.023901,-4.370198,-6.381367,0.9928955,0.006095518,0.0124135,-1.014137,0.9592444,3.754497,2.682929
0.0259323,-3.243685,-1.93452,-0.01994412,0.003793078,0.01485946,-1.016354,0.8751281,3.70433,2.682412
0.0259644,-0.5514615,-1.692217,-2.945051,0.006636321,0.02637449,-1.001899,0.8608098,3.660393,2.605946
0.0259295,-1.575903,-7.193914,-2.798621,0.01442641,0.01910726,-0.9868995,0.8199474,3.473858,2.533379
0.0219619,-4.010307,-7.563533,-1.212847,0.004964626,0.01765055,-1.013011,0.7318735,3.307748,2.506742
0.0249388,-3.974868,-2.180193,-0.910344,-0.002965758,0.03393801,-1.007602,0.632745,3.253377,2.48404
0.0209194,-2.72411,-0.4304031,-1.469225,0.005827376,0.03826796,-1.010162,0.5757583,3.244373,2.453304
0.0269525,-1.076312,-1.559459,0.8763376,0.001532023,0.03076774,-1.005117,0.546749,3.202342,2.476924
0.0239705,-0.7072393,-6.113506,1.404535,-0.0007743239,0.03032364,-0.9949746,0.5297961,3.055798,2.510591
0.0268936,-0.4865629,-12.34126,0.5955307,-0.008676632,0.03686197,-1.010593,0.5167107,2.723897,2.526607
0.0289564,-0.7669655,-7.219351,0.7773719,-0.01291611,0.0278539,-0.999062,0.4945021,2.514851,2.549117
0.0249352,-2.344283,-10.9052,-0.2161859,-0.02228768,0.02128814,-1.009518,0.436047,2.242927,2.543726
0.0249317,-1.852852,-9.42982,-1.660744,-0.02086988,0.0290498,-1.019131,0.3898522,2.007826,2.502321
0.0249323,0.232728,-1.970571,-1.812616,-0.01837048,0.03678288,-1.005318,0.3956546,1.958695,2.457128
0.0229387,0.5946524,-0.9189264,-0.939816,-0.01322884,0.02445788,-1.002644,0.4092952,1.937616,2.43557
0.023928,-0.4752994,-1.385837,0.7421637,-0.02832549,0.02677999,-0.9949667,0.3979222,1.904455,2.453329
0.0239457,-2.476123,-1.533325,-1.265974,-0.01911553,0.03603731,-1.003861,0.3386298,1.867739,2.423014
0.0219342,-2.280836,-5.158121,-1.282728,-0.01719711,0.03756781,-1.012408,0.2886015,1.7546,2.394879
0.0239451,-0.5768142,-4.538568,1.062787,-0.02304967,0.03558434,-1.01188,0.2747896,1.645923,2.420327
0.0269287,-0.1048344,-5.860647,0.4079071,-0.03927272,0.04087039,-0.9916933,0.2719665,1.488104,2.431312
0.02496,-0.1736827,-11.60308,-3.03314,-0.0329718,0.03277211,-1.018026,0.2676314,1.198491,2.355604
0.0219511,0.926344,-5.488518,-2.876128,-0.02634914,0.02981396,-1.009263,0.2879657,1.078012,2.29247
0.0248966,1.248861,-1.332662,0.2930509,-0.03761202,0.03162254,-0.995169,0.3190581,1.044833,2.299766
0.0219412,-0.6694571,-0.6401423,0.5601877,-0.03824712,0.02384568,-1.001114,0.3043694,1.030787,2.312057
0.024934,-1.724722,0.1105386,0.2931605,-0.03606919,0.02812819,-1.001058,0.2613652,1.033543,2.319367
0.021983,-1.720188,0.1171713,0.6549077,-0.0366443,0.03169524,-1.005453,0.2235503,1.036119,2.333764
0.028923,-0.7217335,-0.4187888,0.8018342,-0.03826207,0.03974527,-1.005417,0.2026756,1.024007,2.356956
0.0299218,0.7175946,-0.5903744,-1.067482,-0.04350962,0.03555893,-1.003671,0.2241473,1.006342,2.325015
0.0279227,0.08480125,-2.43829,-2.380571,-0.03458359,0.03872157,-0.9958186,0.2265152,0.9382579,2.258543
0.0268927,-1.286245,-7.134191,-1.474825,-0.04225983,0.03717352,-1.006955,0.1919246,0.7464003,2.21888
0.023936,-1.298142,-2.928538,-1.369505,-0.03883285,0.03242365,-1.006333,0.1608523,0.6763028,2.1861
0.0268967,-0.7958797,-0.3446189,-0.6562204,-0.04157219,0.03763968,-1.003143,0.1394457,0.6670337,2.16845
0.0279514,-0.1008728,0.3746786,0.9516135,-0.04005129,0.03621244,-1.007792,0.1366262,0.6775064,2.195049
0.0278988,1.076773,-0.4206743,1.490389,-0.04669787,0.03516707,-1.001997,0.1666669,0.6657701,2.236629
0.0279606,0.6017316,-1.002607,0.8348566,-0.04492591,0.03452877,-0.9965863,0.1834917,0.6377366,2.259972
0.0289261,-1.225577,-0.2985363,-0.1388228,-0.04768691,0.04188517,-1.003188,0.1480405,0.6291012,2.255956
0.0288923,0.2721424,-2.863735,-2.011947,-0.04705009,0.03157555,-1.012935,0.1559033,0.5463613,2.197826
0.0269538,1.472702,-4.862153,-1.321972,-0.04831527,0.03824927,-0.9892473,0.1955982,0.4153078,2.162194
0.0249333,-0.04968536,-5.89924,-1.308039,-0.05021419,0.02977905,-1.001954,0.1943594,0.2682202,2.12958
0.0219674,0.6364984,-3.063441,-2.298946,-0.05143653,0.03013902,-1.001844,0.2083416,0.2009244,2.079079
0.0269281,-0.8801683,-4.235359,-0.5508034,-0.04894679,0.04704432,-0.99042,0.1846404,0.08687425,2.064247
0.0349056,-1.573978,-2.479314,0.2959055,-0.05996365,0.02499072,-1.022944,0.1296997,0.0003322959,2.074575
0.029959,2.625935,-0.3460183,0.3794624,-0.05011575,0.04462193,-0.9941283,0.2083701,-0.01003407,2.085944
0.0259234,0.5404277,-0.7935632,1.779135,-0.06556834,0.04224891,-0.9966618,0.2223798,-0.03060592,2.132065
0.0269024,-0.2300854,-1.044701,-0.758503,-0.06257995,0.03067363,-0.9980536,0.21619,-0.05871089,2.111659
0.0249674,-0.1478265,-3.904317,-0.4919768,-0.04835368,0.03169098,-0.9944412,0.2124991,-0.1561915,2.099376
0.0249336,-0.6196784,-2.559636,2.450868,-0.06377471,0.03839269,-1.00304,0.1970483,-0.2200125,2.160485
0.0229369,-0.02262124,-1.567792,0.7772927,-0.07214899,0.03678863,-1.006218,0.1965294,-0.2559727,2.178314
0.0239016,0.874061,-0.6628249,-1.93558,-0.05596797,0.03524695,-1.001987,0.2174209,-0.2718153,2.13205
0.0289223,0.3116448,-0.5028427,-0.04822406,-0.06859375,0.03270424,-0.995416,0.2264344,-0.2863587,2.130656
0.0249702,-0.8366095,-3.260046,-0.8732097,-0.06858806,0.02702919,-1.004894,0.2055441,-0.3677627,2.108851
0.0249338,0.2900362,-5.944952,-1.989024,-0.05795295,0.03754296,-0.9997885,0.2127758,-0.5159929,2.059257
0.023901,-0.3804697,-4.267855,-0.2222986,-0.06404537,0.03996631,-1.001194,0.2036822,-0.617999,2.053944
0.0229728,-1.366549,-1.271798,0.3617535,-0.07006355,0.03374594,-1.006214,0.1722887,-0.6472157,2.062255
0.0219482,0.1138145,-0.2392949,-0.997314,-0.07301217,0.03543294,-1.004889,0.1747867,-0.6524678,2.040365
0.023936,1.012413,-0.2802497,-2.010705,-0.05837757,0.03726109,-0.9944022,0.1990199,-0.6591759,1.992237
0.0229055,-0.5340249,-0.4098733,0.06221662,-0.06245976,0.03483383,-0.9993717,0.1867878,-0.6685642,1.993662
0.0239507,-1.359277,-0.2666723,1.4916,-0.07083176,0.03469962,-1.003274,0.1542321,-0.6749512,2.029387
0.0269254,-0.1891306,0.1706133,0.3029329,-0.06876291,0.03544052,-1.003122,0.1491397,-0.6703573,2.037544
0.0249688,0.09058718,0.3633139,-0.2063011,-0.07176112,0.03930031,-0.9981058,0.1514015,-0.6612858,2.032393
0.0239359,-0.007328863,-0.2745596,-0.0489166,-0.0670285,0.03277227,-1.00459,0.1512261,-0.6678576,2.031222
0.0239002,0.6174801,-0.5581645,0.134801,-0.0718252,0.03235939,-1.000851,0.165984,-0.6811979,2.034444
0.021967,0.246239,0.03614722,-0.4358186,-0.06591409,0.03589597,-0.9962195,0.1713932,-0.6804038,2.02487
0.0239114,-0.9951527,0.4144862,-0.03261302,-0.06841941,0.04032361,-1.002838,0.1475977,-0.6704929,2.02409
0.0279503,-0.6258346,-1.744225,0.4033818,-0.06924187,0.03324094,-1.003143,0.1301054,-0.7192445,2.035365
0.024934,-0.008416153,-8.514173,0.1847355,-0.07666315,0.03015908,-1.003744,0.1298956,-0.9315369,2.039971
0.0279546,-0.5012551,-3.614541,-0.3204856,-0.06832398,0.04116476,-1.000748,0.1158832,-1.03258,2.031012
0.0219101,-0.6759032,0.1159107,0.9089472,-0.0753964,0.040277,-1.000595,0.1010741,-1.03004,2.050927
0.0239358,-0.6434713,0.7965667,0.2959875,-0.07464022,0.03588958,-1.001229,0.08567205,-1.010974,2.058012
0.0258968,-0.5053846,1.186222,-0.1977833,-0.07338151,0.03359359,-1.003926,0.0725842,-0.9802545,2.05289
0.0219404,0.4103246,0.6340489,-0.06051504,-0.07405815,0.03465184,-0.9982885,0.08158689,-0.9663432,2.051562
0.0259227,-0.4692888,0.8182809,0.2705095,-0.06860053,0.03845172,-0.9968475,0.06942166,-0.9451311,2.058574
0.0219517,-1.57171,1.330069,1.10945,-0.07309126,0.04223812,-1.000185,0.03491996,-0.9159338,2.082928
0.0269222,-0.3283822,0.8725281,0.4401248,-0.0767625,0.03604614,-1.007873,0.02607919,-0.8924435,2.094778
0.0288923,0.7085848,0.2940393,-1.254931,-0.07264391,0.03842228,-0.9951808,0.04655184,-0.883948,2.05852
0.0239621,-0.8740163,0.4663704,-0.93172,-0.06519938,0.03809171,-0.9954602,0.02560857,-0.8727728,2.036194
0.0239354,-1.529989,0.7302085,0.4450616,-0.07218833,0.03811098,-1.003145,-0.01101233,-0.855295,2.046847
0.0229512,-0.665997,0.7861627,0.3287126,-0.07253011,0.03787913,-1.005234,-0.02629777,-0.8372516,2.054391
0.0229012,0.7578111,0.4075714,-0.6564584,-0.0688115,0.03736915,-0.9994316,-0.008942982,-0.8279178,2.039357
0.0229405,0.5790856,0.4732212,-0.6361622,-0.07166114,0.03867571,-0.9959025,0.004341532,-0.8170618,2.024763
0.0229013,-0.7566459,0.7344279,-0.7289995,-0.0685782,0.03797571,-0.9986891,-0.01298664,-0.8002425,2.008068
0.0209775,-0.783988,0.4361057,-0.4391781,-0.06838802,0.0369161,-1.004455,-0.02943275,-0.7910941,1.998855
0.0248976,-0.003960553,0.1818292,0.2425995,-0.07474557,0.03920316,-1.003904,-0.02953136,-0.786567,2.004896
0.0298875,0.3593621,0.2836522,-0.08891199,-0.06929875,0.03993716,-1.0004,-0.01879092,-0.7780893,2.002238
0.0249335,-0.27569,-0.4536262,-0.7383572,-0.07614461,0.03659255,-0.9978102,-0.02566484,-0.7893999,1.983828
0.0289542,-0.1581017,-0.6662304,-1.225924,-0.06671337,0.03861722,-1.002094,-0.03024255,-0.80869,1.948333
0.026931,0.1706493,0.1409215,0.5926421,-0.06671023,0.03580452,-1.001378,-0.02564679,-0.8048949,1.964293
0.024921,-0.1364379,0.7464049,1.916336,-0.07043023,0.0412579,-0.997831,-0.02904696,-0.7862937,2.01205
0.0229383,-0.9877244,0.7807481,1.670397,-0.07915338,0.04186517,-1.003326,-0.05170368,-0.7683846,2.050366
0.0239115,0.1541429,0.003616844,-0.6753588,-0.07374997,0.03897484,-1.00561,-0.04801789,-0.7682981,2.034217
0.0229411,0.8261822,0.01202764,-1.497297,-0.06433038,0.03969564,-0.9973997,-0.02906436,-0.7680222,1.999868
0.025963,-0.1338523,0.8289313,0.1678304,-0.06736546,0.03932318,-0.9985425,-0.03253957,-0.7465007,2.004225
0.0318838,-0.3817484,3.024734,-0.4970604,-0.06768428,0.03947233,-1.002836,-0.04471116,-0.6500607,1.988377
0.0289177,0.3118891,4.558596,-0.5200702,-0.06925729,0.03910558,-1.003838,-0.03569204,-0.5182365,1.973338
0.0299218,0.6672792,2.901389,-1.416475,-0.06689825,0.04004717,-0.9969383,-0.01572585,-0.4314218,1.930954
0.0269641,-0.4752392,2.31056,-2.367545,-0.06261028,0.03787538,-0.9978817,-0.02854025,-0.3691196,1.867115
0.023925,-1.092295,3.285326,-0.9715316,-0.05769015,0.03792258,-1.001621,-0.0546734,-0.2905182,1.843872
0.0239351,-0.7599109,4.593748,0.09810104,-0.06428991,0.03910822,-1.000835,-0.07286194,-0.1805663,1.84622
0.0278924,-1.010883,5.203646,-1.055329,-0.05822173,0.04034145,-0.9985467,-0.1010579,-0.03542416,1.816784
0.0249658,-2.192927,3.782723,-0.6389337,-0.05175207,0.03915035,-0.9985988,-0.1558061,0.05901454,1.800833
0.0249246,-2.164136,3.942681,1.217315,-0.05120403,0.03906653,-1.003986,-0.2097463,0.1572843,1.831174
0.0229121,-1.012667,4.609828,1.75367,-0.05713292,0.04029179,-1.008708,-0.2329486,0.2629051,1.871354
0.0249332,0.007463143,3.833991,0.1487657,-0.05457647,0.04365387,-0.9984795,-0.2327626,0.3584988,1.875063
0.0279499,-1.607907,2.522256,-1.224448,-0.04359828,0.03966611,-0.9971476,-0.2777034,0.4289956,1.84084
0.0239443,-2.698614,3.41495,-0.0190367,-0.04752714,0.03823733,-1.005295,-0.3423198,0.5107642,1.840384
0.0239041,-1.868196,8.135723,-0.07039928,-0.05392915,0.04514776,-1.002384,-0.3869774,0.7052413,1.838701
0.0269607,-1.817472,7.53714,-2.2174,-0.04125373,0.0545003,-1.004862,-0.4359777,0.9084479,1.778919
0.0268927,-0.3764953,3.614339,-1.795614,-0.03256268,0.04746091,-1.005172,-0.4461027,1.005647,1.73063
0.024971,0.5992775,2.072983,0.8671733,-0.03261223,0.04522826,-0.9999173,-0.4311381,1.057412,1.752284
0.0239359,0.56186,3.396364,1.920948,-0.0396934,0.04428595,-1.009939,-0.4176895,1.138707,1.798263
0.0259218,2.539735,4.726634,1.272377,-0.03825501,0.04611298,-1.008315,-0.351855,1.26123,1.831246
0.022945,3.001912,3.12194,0.5616266,-0.03128491,0.04265586,-0.9977125,-0.2829761,1.332862,1.844132
0.0258974,1.626133,3.302238,1.510372,-0.03558904,0.03375495,-1.002362,-0.2408635,1.418382,1.883247
0.0239349,1.604464,7.91592,0.02101455,-0.04409033,0.03733625,-0.9959438,-0.2024608,1.607849,1.88375
0.0249541,2.128546,20.36403,-2.585324,-0.01339577,0.04897807,-1.018289,-0.1493448,2.116014,1.819235
0.0259434,2.430135,20.19893,-1.112289,-0.004386083,0.04000309,-1.002674,-0.08629886,2.640043,1.790379
0.027929,4.380183,2.887591,1.340924,-0.00838137,0.03241551,-1.002653,0.03603528,2.720691,1.82783
0.0229699,3.649067,2.180021,1.279294,-0.005982281,0.03558401,-1.00015,0.119854,2.770766,1.857215
0.0239048,2.722856,5.520407,0.7906172,-0.004755778,0.0392649,-1.002071,0.1849433,2.90273,1.876114
0.0239347,2.582278,6.005419,0.4439589,-0.001395132,0.03814618,-0.9967669,0.2467494,3.046468,1.88674
0.0219682,1.541738,1.820255,0.7072252,-0.00577285,0.03434054,-0.9966013,0.2806186,3.086456,1.902277
0.0219391,0.3036441,0.9665114,0.0736252,-0.002999997,0.03195935,-1.003816,0.2872803,3.10766,1.903892
0.0278991,1.711885,9.32743,-1.63415,0.006109701,0.03359276,-1.022938,0.3350403,3.367887,1.858301
0.028923,4.061855,16.01334,-2.770026,0.01093657,0.02744112,-0.9941165,0.4525213,3.831041,1.778183
0.0229106,2.325188,4.553818,-1.20578,0.01680944,0.02099304,-0.9934766,0.5057928,3.935372,1.750558
0.0258897,-0.6559882,0.5653738,0.2674251,0.01141923,0.02310783,-1.003089,0.4888095,3.950009,1.757482
0.0249599,0.3500274,4.433552,-1.38611,0.007915523,0.02893656,-1.019149,0.4975461,4.06067,1.722885
0.021918,2.709712,13.1263,-4.256674,0.02243519,0.03003415,-1.009036,0.5569376,4.348372,1.629587
0.0229375,2.77926,13.94852,-3.509331,0.02925893,0.02844663,-0.985919,0.6206869,4.668316,1.549092
0.0219432,0.6502714,2.718557,-0.6465023,0.03267097,0.02890054,-0.9967837,0.6349559,4.72797,1.534905
0.0248984,-0.8655115,1.271954,1.00492,0.02864323,0.03189062,-1.008579,0.6134061,4.759639,1.559926
0.0259581,0.7886407,14.37775,-2.321195,0.01751013,0.03507441,-1.017641,0.6338777,5.132858,1.499672
0.0229391,0.993357,29.95976,-6.21834,0.04486318,0.03372584,-0.9980729,0.6566644,5.820108,1.357029
0.0249087,-0.7430673,22.15643,-4.477344,0.06539878,0.02887815,-0.9893985,0.6381556,6.371996,1.245504
0.0239003,-0.0887315,2.622998,-0.5253735,0.07037847,0.02609744,-1.008479,0.6360348,6.434687,1.232948
0.0229374,1.883194,1.246734,1.9167,0.05231467,0.02368265,-1.006509,0.6792305,6.463284,1.276912
0.0229755,4.144058,1.666664,0.4652252,0.05598544,0.01930091,-1.006005,0.7744423,6.501576,1.287601
0.0239404,5.249372,0.2933564,0.3370183,0.06682569,0.01914582,-0.993616,0.9001143,6.508599,1.295669
0.0259245,1.069835,0.1251121,3.414038,0.05795475,0.01263926,-0.9942592,0.9278492,6.511842,1.384176
0.0259059,-0.9767988,4.068696,2.040209,0.05027095,0.02021543,-1.018938,0.9025444,6.617246,1.43703
0.0269624,1.443053,12.99592,-1.630843,0.05482809,0.02753206,-1.014542,0.9414526,6.967647,1.393058
0.0259029,2.666765,19.40185,-2.684835,0.0861764,0.0222679,-0.9909073,1.01053,7.470211,1.323513
0.0249085,1.978101,7.050391,1.048085,0.0844622,0.02262324,-0.9904355,1.059801,7.645826,1.34962
0.0289561,1.990706,4.437002,1.441954,0.07638196,0.02087888,-1.009055,1.117444,7.774304,1.391373
0.0259241,2.765366,7.913604,0.4683135,0.08303147,0.02038443,-1.003584,1.189134,7.979457,1.403514
0.0289305,2.624275,8.81864,-0.08167093,0.0818097,0.01890914,-1.002874,1.265055,8.234585,1.401151
0.0329495,1.145838,11.73834,-0.6355116,0.09938893,0.01104429,-1.001488,1.30281,8.621357,1.380211
0.0329095,-0.5116009,21.35235,0.1036716,0.09468394,0.01612052,-0.9969751,1.285974,9.324052,1.383623
0.0269178,-0.8281031,21.18376,-2.987334,0.1082036,0.01800636,-0.9959394,1.263683,9.894272,1.30321
0.0289242,0.5760909,15.25331,-2.135314,0.1381274,0.01045786,-0.9969755,1.280346,10.33546,1.241448
0.0239431,1.490653,11.03242,1.862304,0.1282858,0.01170878,-0.9898548,1.316037,10.59961,1.286037
0.0259306,0.1723607,11.91225,1.754539,0.1235636,0.01476737,-0.9940587,1.320506,10.9085,1.331534
0.0229066,0.2666042,11.97181,0.05903296,0.1348037,0.01678791,-0.9964821,1.326613,11.18274,1.332886
0.0259628,0.9809851,9.4717,0.7409404,0.1495852,0.01356506,-0.9974275,1.352082,11.42865,1.352123
0.0269003,-0.4063757,20.64595,2.206367,0.1417644,0.01547855,-0.9967741,1.341151,11.98403,1.411475
0.0229736,-2.805494,37.28946,-0.6864862,0.1521509,0.02378562,-0.9904615,1.276698,12.8407,1.395704
0.024898,-2.818878,35.91378,-3.212979,0.1889289,0.02073746,-0.9842736,1.206514,13.73489,1.315707
0.0229729,-1.060689,19.65451,-0.5502193,0.2058496,0.01381944,-0.9788446,1.182147,14.18641,1.303067
0.024898,-1.137486,14.65197,3.412792,0.1897979,0.01029946,-0.9929155,1.153826,14.55121,1.388038
0.0239373,-1.938136,30.9289,0.584042,0.1910477,0.01955054,-0.9879333,1.107432,15.29157,1.402019
0.0219751,-1.536737,39.22339,-2.868494,0.2217375,0.02485148,-0.9746526,1.073662,16.15351,1.338983
0.0268934,-0.03492101,21.37201,-0.9668419,0.2431432,0.01389881,-0.9652743,1.072723,16.72827,1.312982
0.0279637,-0.6611137,5.895175,3.246158,0.2392003,0.01033196,-0.9823852,1.054236,16.89312,1.403756
0.0239247,-1.76705,20.36472,2.461579,0.2280789,0.02030262,-0.9839226,1.011959,17.38034,1.462649
0.0239312,-1.170176,31.83383,-1.763698,0.2480118,0.02451218,-0.9791156,0.9839557,18.14216,1.420441
0.0239363,1.182093,20.91526,-2.269454,0.2746235,0.02217552,-0.9583374,1.012251,18.6428,1.366119
0.0239359,0.7460237,6.402726,1.248731,0.2742811,0.01802735,-0.9589831,1.030107,18.79605,1.396008
0.02194,-0.2537433,8.503655,1.665593,0.2559693,0.02065011,-0.9803937,1.02454,18.98262,1.432552
0.0229744,-0.8061512,25.56181,-2.441578,0.2770881,0.02545664,-0.9727488,1.006019,19.56989,1.376458
0.0239368,0.8978122,27.15823,-4.288614,0.2984758,0.02457708,-0.9543532,1.02751,20.21997,1.273802
0.0289438,1.100516,6.667611,-0.3681349,0.3039321,0.01075434,-0.9465371,1.059363,20.41296,1.263147
0.0239652,-0.8846323,4.334612,1.467037,0.2936201,0.0133835,-0.9634376,1.038163,20.51684,1.298305
0.0229723,-1.57625,21.8255,-0.970387,0.3033711,0.02382577,-0.9665564,1.001953,21.01822,1.276013
0.0259248,-0.2831233,25.67848,-2.967542,0.3262442,0.0285221,-0.9411173,0.9946129,21.68393,1.19908
0.0209559,1.24564,9.112201,-0.2796377,0.3358009,0.0191687,-0.9416783,1.020716,21.87488,1.19322
0.0239745,0.57617,2.151856,2.641513,0.3196734,0.01315551,-0.948045,1.03453,21.92647,1.256549
0.0209487,-0.1209819,8.786213,0.02898487,0.3204497,0.02407697,-0.9559278,1.031995,22.11053,1.257156
0.0239087,-1.120956,21.54256,-2.848166,0.3359252,0.02908294,-0.9454083,1.005195,22.62559,1.18906
0.025956,-0.09896474,14.96269,-1.74106,0.3517051,0.02005355,-0.9353498,1.002626,23.01396,1.143869
0.0279007,0.7884427,3.276589,1.92031,0.3402124,0.01491804,-0.9420217,1.024624,23.10538,1.197447
0.0259582,0.2356596,7.544176,-0.1041322,0.3374038,0.02395894,-0.9449354,1.030741,23.30121,1.194744
0.0229118,-1.288004,21.71108,-2.318768,0.3594484,0.02232706,-0.9414913,1.001231,23.79865,1.141617
0.029919,0.4226445,17.06149,0.3218246,0.3671825,0.02268631,-0.9351432,1.013876,24.30911,1.151245
0.0249326,1.47006,6.56493,2.114085,0.3640903,0.01554874,-0.9287335,1.050529,24.47279,1.203955
0.0239672,0.09217638,8.632501,1.349308,0.3587125,0.0169368,-0.9392084,1.052738,24.67969,1.236294
0.0249337,-0.787307,27.20895,-1.975528,0.3848042,0.02578765,-0.9304945,1.033107,25.35811,1.187037
0.0249368,0.5791952,23.87948,-1.730546,0.4006059,0.02306173,-0.9136505,1.047551,25.95359,1.143883
0.0269625,1.073556,4.93749,1.508008,0.3911718,0.01951756,-0.9195509,1.076496,26.08672,1.184542
0.0288909,0.5832878,5.629904,0.1643421,0.389746,0.01875025,-0.9336699,1.093348,26.24937,1.18929
0.026961,-0.0801926,28.3353,-3.161441,0.4035563,0.0207147,-0.9258884,1.091186,27.01332,1.104055
0.0268931,1.604083,20.45175,-1.488263,0.4256028,0.02309842,-0.9020688,1.134325,27.56333,1.064031
0.022941,1.792955,5.096786,2.098508,0.4219643,0.01844396,-0.9022678,1.175457,27.68025,1.112173
0.0239302,-0.8659469,3.535706,2.352795,0.4158443,0.01549001,-0.9212396,1.154735,27.76486,1.168476
0.0209471,-1.488371,14.90026,-0.1153823,0.4198449,0.01904248,-0.9203083,1.123558,28.07698,1.166059
0.0278879,0.7537366,17.90475,-1.602491,0.4386379,0.01874301,-0.8991209,1.144578,28.57631,1.121368
0.0319102,0.3350028,3.219997,1.720219,0.4397226,0.01519126,-0.8966807,1.155268,28.67906,1.176261
0.0269284,-1.069951,4.045156,1.389845,0.4287461,0.01700116,-0.919356,1.126456,28.78798,1.213687
0.0339106,1.42105,23.09041,-2.571684,0.4539545,0.02203673,-0.9066341,1.174644,29.571,1.12648
0.0309154,1.624646,10.53413,2.884887,0.4651894,0.02089779,-0.8745126,1.224871,29.89666,1.215667
0.0299223,-2.085011,3.092658,3.994826,0.4455592,0.01740986,-0.8958588,1.162483,29.9892,1.335202
0.0259292,-0.8762775,11.95253,-0.7727163,0.4535042,0.01679506,-0.9081467,1.139761,30.29912,1.315166
0.0339369,-1.206311,25.03735,-2.312412,0.4823897,0.01999874,-0.8744319,1.098823,31.14881,1.23669
0.0289218,-1.417554,7.392245,2.218498,0.4811299,0.01796172,-0.8810805,1.057825,31.36261,1.300853
0.0249048,0.4610854,3.474759,2.031569,0.4754801,0.01382487,-0.8870615,1.069308,31.44914,1.351449
0.025961,1.528534,16.28718,-1.152067,0.4791497,0.01445978,-0.8882383,1.10899,31.87198,1.32154
0.0229087,1.19282,22.11316,-2.479446,0.500241,0.01819758,-0.8667498,1.136316,32.37856,1.264739
0.0229357,0.5435838,15.64594,-1.312725,0.5024467,0.01625578,-0.8669815,1.148784,32.73741,1.234631
0.021943,-0.0415829,12.07807,0.277086,0.508131,0.01857787,-0.8634641,1.147871,33.00244,1.240711
0.0229404,-0.13398,9.63344,1.421255,0.5085925,0.01868654,-0.8611288,1.144798,33.22344,1.273315
0.0238991,-0.6892498,8.967896,1.516686,0.5109446,0.01810618,-0.864046,1.128325,33.43776,1.309563
0.0279264,-0.8897924,12.5674,1.310897,0.5200459,0.01885405,-0.8601302,1.103477,33.78873,1.346171
0.0259306,-1.023055,14.48346,1.629522,0.5164039,0.01811345,-0.8614054,1.076948,34.16429,1.388426
0.0229725,-2.44888,21.15246,0.3301588,0.5301073,0.02277865,-0.8559356,1.020691,34.65022,1.39601
0.0239306,-1.862103,20.37496,1.00943,0.5439231,0.02303319,-0.8480433,0.9761299,35.1378,1.420167
0.0229111,-0.5426147,10.21614,3.130871,0.5380303,0.01478441,-0.8416753,0.963698,35.37186,1.491898
0.0249564,-0.728611,7.337985,2.316139,0.5384526,0.01342472,-0.8572469,0.9455144,35.55499,1.549701
0.0229402,-1.059432,20.75255,-0.1474824,0.5437337,0.01523309,-0.8501832,0.9212108,36.03106,1.546317
0.0259345,0.5221884,21.1309,-1.306996,0.5668225,0.02321758,-0.8233704,0.9347535,36.57907,1.512421
0.0299114,0.148281,8.301476,0.9676954,0.5605223,0.02174567,-0.8266442,0.9391888,36.82738,1.541366
0.0269008,-0.5232954,11.98117,-0.3095592,0.5603962,0.01851163,-0.8361065,0.9251118,37.14969,1.533039
0.0289545,-0.451311,19.91017,-1.90635,0.5852594,0.02336254,-0.8141968,0.9120443,37.72618,1.477841
0.0239459,-0.3036114,8.109405,1.030583,0.5833254,0.02140633,-0.8150918,0.904774,37.92036,1.50252
0.0259286,-0.5076572,2.840508,1.370604,0.5740916,0.01093464,-0.825573,0.8916112,37.99401,1.538058
0.0239552,-0.1794429,14.14528,-1.641557,0.5758539,0.01623751,-0.8323793,0.8873126,38.33287,1.498734
0.0249353,0.9285346,20.58012,-1.979008,0.6014041,0.02338983,-0.8072583,0.9104659,38.84604,1.449387
0.029919,1.228864,6.266408,2.783456,0.5956039,0.0140224,-0.7978325,0.9472323,39.03352,1.532665
0.0289349,-0.7317148,2.099308,2.205961,0.59219,0.01207344,-0.819216,0.9260602,39.09426,1.596494
0.0279143,-0.9349546,11.85751,-0.9928733,0.6007849,0.02166819,-0.8058068,0.8999616,39.42526,1.568779
0.0259311,-0.01512646,9.630762,-0.5630235,0.6151505,0.02127735,-0.7922737,0.8995693,39.675,1.554179
0.02593,-1.492304,1.614613,2.827739,0.6014768,0.01871043,-0.8011609,0.8608739,39.71686,1.627502
0.0279251,-0.8090492,2.375147,1.05902,0.6002825,0.02190196,-0.8045856,0.8382811,39.78319,1.657075
0.0279264,0.5508612,2.334466,-0.9820881,0.6115276,0.02054823,-0.7952647,0.8536646,39.84838,1.629649
0.0249553,-0.4714031,0.6040334,0.3105331,0.6146133,0.01813669,-0.7976953,0.8419006,39.86346,1.637399
0.0279375,-0.9921234,3.381954,1.998673,0.6054211,0.01104353,-0.8021464,0.8141832,39.95794,1.693236
0.0248977,-0.7436724,17.01978,0.125793,0.6065035,0.01311965,-0.801506,0.7956675,40.38169,1.696368
0.0239729,0.8393264,16.38803,-0.5288262,0.6290413,0.02578711,-0.7816545,0.8157886,40.77456,1.683691
0.0249313,1.30898,4.692005,2.434282,0.626993,0.01282124,-0.7793173,0.8484231,40.89154,1.744381
0.0229376,-0.5770614,1.490647,3.295638,0.6160668,0.008274248,-0.7823009,0.8351867,40.92573,1.819975
0.0229041,-1.65687,1.865205,0.7658681,0.6196828,0.01898457,-0.793215,0.7972376,40.96845,1.837516
0.0229736,-1.079244,4.040921,-0.5854881,0.6224419,0.02227351,-0.7902169,0.7724435,41.06128,1.824066
0.0239278,0.4961315,1.639688,0.04933991,0.6304306,0.01725587,-0.7829221,0.7843149,41.10052,1.825246
0.0288975,-0.4501798,1.476285,1.904697,0.6277287,0.01723242,-0.7812392,0.7713058,41.14318,1.880287
0.0249332,-0.6932169,4.748417,1.20231,0.6178244,0.0211615,-0.7913839,0.7540217,41.26157,1.910265
0.0219663,0.9310112,4.338143,-0.2482168,0.6266302,0.0188178,-0.7817319,0.7744726,41.35686,1.904812
0.0229505,0.5148414,5.08475,-0.3460318,0.6321666,0.008102765,-0.7822287,0.7862884,41.47356,1.896871
0.0248969,-0.6651927,9.418531,-0.1217963,0.6309336,0.01347365,-0.7829422,0.7697272,41.70805,1.893838
0.023936,-0.5162661,8.765718,-0.4698494,0.6367525,0.02405218,-0.7725018,0.7573699,41.91787,1.882592
0.0229749,-0.1460962,3.197022,0.1205403,0.6382788,0.01553051,-0.7751162,0.7540133,41.99132,1.885361
0.0258952,-0.1055848,0.9565334,-0.1001156,0.6317065,0.01293913,-0.7754592,0.7512792,42.01609,1.882769
0.0319179,-0.3339032,1.245133,-1.061989,0.6447414,0.02351325,-0.7778017,0.7406217,42.05583,1.848872
0.0359034,0.6542135,-0.210248,2.322704,0.6371838,0.01724043,-0.7759758,0.7641101,42.04828,1.932265
0.0338752,0.04605741,1.803404,-0.9108134,0.6327832,0.01439994,-0.7740877,0.7656704,42.10938,1.901411
0.0279257,0.146549,1.470476,-2.116545,0.6502122,0.01997864,-0.7749403,0.7697629,42.15044,1.842305
0.0279183,0.3681806,-0.05281762,1.837534,0.6424081,0.01468217,-0.7732331,0.7800419,42.14896,1.893606
0.0249286,-0.2291301,1.133377,1.55572,0.6301053,0.01280013,-0.7740088,0.77433,42.17722,1.932388
0.0249414,-0.4984874,1.194579,-0.9118616,0.6362991,0.01550458,-0.7725663,0.761897,42.20701,1.909645
0.0328759,-0.3669533,-0.3130884,0.1347535,0.644499,0.01604822,-0.775282,0.749833,42.19672,1.914075
0.0319449,-0.05554328,1.363666,1.000758,0.6377798,0.01356361,-0.7734197,0.7480587,42.24028,1.946044
0.0259001,-1.005375,15.54681,0.04244434,0.6469113,0.01763381,-0.773403,0.7220194,42.64294,1.947144
0.0269285,0.4037557,11.99149,0.2130438,0.6486602,0.02596418,-0.7581248,0.732892,42.96586,1.952881
0.023969,0.6515427,5.904854,0.9264516,0.6504257,0.01523801,-0.7595256,0.7485088,43.10739,1.975087
0.024922,0.3361638,-0.1193392,1.057523,0.6526102,0.01414009,-0.7581583,0.7568867,43.10442,2.001442
0.0229448,-0.5747796,0.7650812,-0.07755604,0.6474629,0.01380785,-0.7668036,0.7436985,43.12197,1.999663
0.0289201,-0.9060792,12.03269,-1.833834,0.6599796,0.01603999,-0.7634488,0.7174946,43.46996,1.946628
0.0288941,-0.6580632,14.87285,-0.4887724,0.6668874,0.02233513,-0.7506958,0.6984805,43.8997,1.932505
0.0259396,0.1102047,2.750201,2.761801,0.6592991,0.01097715,-0.7552794,0.7013391,43.97104,2.004145
0.0238996,0.2622116,1.646299,1.663851,0.6538045,0.009602424,-0.7542526,0.7076059,44.01038,2.043911
0.0259594,0.5751733,1.004935,-0.6140203,0.6655914,0.01917481,-0.7536753,0.722537,44.03647,2.027971
0.0249028,0.5626612,-0.9950743,0.6300837,0.6610684,0.0143756,-0.7510667,0.7365489,44.01169,2.043662
0.0229696,-0.05392948,-0.4870814,0.6944231,0.6590382,0.01145535,-0.7539309,0.7353101,44.0005,2.059613
0.0239599,-0.1050631,1.488076,-0.9662131,0.6606179,0.0165987,-0.7552245,0.7327929,44.03616,2.036462
0.0249452,0.1662786,0.8215807,-0.8831713,0.6715394,0.02334555,-0.7525935,0.7369407,44.05665,2.014431
0.0269609,-0.06325582,-0.8750182,1.794627,0.6620633,0.0163496,-0.7534926,0.7352353,44.03306,2.062816
0.0239026,-0.3036881,1.045882,1.490698,0.6594176,0.01317837,-0.755753,0.7279763,44.05806,2.098448
0.0219403,-0.03157954,6.368093,0.1624623,0.6594475,0.02083289,-0.7501839,0.7272835,44.19778,2.102012
0.024935,0.4989588,7.646898,-0.8631468,0.6728081,0.02012586,-0.7448779,0.739725,44.38845,2.080489
0.0229937,0.5614335,-0.2189709,0.9722602,0.6741705,0.01219026,-0.7439355,0.7526344,44.38342,2.102845
0.0279025,-0.0534414,0.5386705,1.16442,0.6594979,0.01168528,-0.7514722,0.7511433,44.39845,2.135335
0.0239723,0.3727926,2.22269,-1.120926,0.6672317,0.01314569,-0.7454842,0.76008,44.45173,2.108464
0.024922,-0.2207522,0.8432351,-1.745023,0.6730674,0.011203,-0.7430977,0.7545784,44.47274,2.064975
0.0269382,-1.152916,-1.10782,0.7906252,0.6754832,0.01237436,-0.752376,0.7235209,44.4429,2.086273
0.0238982,-0.01892773,0.1530894,2.011438,0.6646394,0.01428981,-0.7540883,0.7230686,44.44656,2.134342
0.0229627,0.9862978,2.0268,0.8266788,0.667947,0.01656548,-0.7452068,0.7457166,44.4931,2.153325
0.0248994,0.09320294,0.4027106,0.09374899,0.6685085,0.01604955,-0.7406681,0.7480373,44.50313,2.15566
0.0219766,-1.417859,-1.276764,0.2600288,0.6728195,0.01523785,-0.744176,0.7168776,44.47507,2.161374
0.0248982,-1.434864,0.4893882,-0.07781371,0.6655053,0.01295487,-0.7546998,0.6811521,44.48726,2.159437
0.0229741,0.2663592,6.491218,-1.544595,0.6696693,0.02062052,-0.7479771,0.6872715,44.63639,2.123951
0.0249325,0.8266169,2.699113,-0.7244772,0.6772621,0.02341503,-0.7407559,0.7078811,44.70368,2.105888
0.0258973,0.6540259,-2.338619,1.127483,0.6722653,0.01294353,-0.7483662,0.7248186,44.64312,2.135087
0.0229628,1.075289,-0.322929,0.2657032,0.6691762,0.01009098,-0.7437655,0.7495102,44.6357,2.141188
0.0249091,0.212835,2.040174,-1.26736,0.6715828,0.01375353,-0.7421175,0.7548118,44.68652,2.109619
0.0219413,-0.8483915,2.006582,-0.8905031,0.6779343,0.01501163,-0.7433798,0.7361969,44.73055,2.09008
0.0249687,-0.9493958,-0.8014787,1.169119,0.6743953,0.01254692,-0.7423368,0.7124918,44.71054,2.119272
0.0229364,-1.190916,-1.368793,1.583458,0.6658031,0.01328256,-0.7486877,0.6851764,44.67914,2.155591
0.0249266,-0.06798384,1.761541,-0.303506,0.6632637,0.01401835,-0.7509199,0.6834818,44.72305,2.148026
0.0219437,1.204783,2.345784,-2.026941,0.6786153,0.01645277,-0.7393166,0.7099192,44.77453,2.103547
0.0298929,-0.7325302,-1.078548,0.9790244,0.6777747,0.01792537,-0.7410327,0.6880218,44.74229,2.132813
0.032912,-0.3872764,-0.4614283,0.8495536,0.659639,0.01133026,-0.7530664,0.6752757,44.7271,2.160773
0.0269273,0.8035053,1.744424,-2.206018,0.6758274,0.01694004,-0.7410632,0.696912,44.77407,2.101371
0.0259312,-0.338846,0.006367262,-0.8592835,0.6805791,0.01805996,-0.7409977,0.6881253,44.77424,2.079089
0.0239721,-1.270215,-1.735607,1.406244,0.6716028,0.01621312,-0.744797,0.6576756,44.73263,2.1128
0.0249305,-0.7505546,1.261102,0.3427485,0.6687385,0.01183233,-0.7489071,0.6389639,44.76407,2.121345
0.0308827,0.1988228,7.959802,-1.338778,0.6710787,0.02309118,-0.7329885,0.6451041,45.00989,2.079999
0.0349074,0.3354112,2.024684,1.879745,0.6874676,0.01572806,-0.7344333,0.6568124,45.08057,2.145617
0.0349329,-0.4635711,0.4550382,2.220526,0.6714322,0.01275669,-0.7391844,0.6406186,45.09646,2.223186
0.0318893,-0.4099703,0.2047959,-1.190542,0.6811402,0.01999132,-0.7373002,0.6275449,45.10299,2.18522
0.0309523,-0.2115883,-3.11758,0.054809,0.6796128,0.01573614,-0.7410254,0.6209958,45.0065,2.186917
0.0289022,-0.2447183,0.1661754,-0.1726225,0.6721268,0.01366725,-0.7471371,0.6139228,45.0113,2.181928
0.0269492,1.090589,4.02549,-2.133266,0.6843046,0.02159248,-0.7372506,0.6433133,45.11978,2.124438
0.0239346,1.066906,1.581314,-0.5339299,0.6876103,0.01635293,-0.7365111,0.6688493,45.15763,2.111658
0.0229313,0.3244451,-2.106558,1.784073,0.6814944,0.0110526,-0.7330673,0.6762893,45.10933,2.15257
0.0249075,-1.094466,-0.4343157,1.45491,0.6660729,0.007180592,-0.7488491,0.6490289,45.09851,2.188808
0.0279605,0.6453987,2.842328,-2.086888,0.6836576,0.02071062,-0.7335873,0.6670746,45.17798,2.130457
0.027924,-0.5358094,-1.240092,0.1461433,0.6857729,0.01462666,-0.7351969,0.6521126,45.14335,2.134538
0.026929,-1.275745,-1.568011,1.78397,0.669088,0.01219118,-0.747552,0.6177581,45.10112,2.182579
0.0248968,0.8567174,2.918604,-1.245771,0.6815931,0.02327647,-0.7353108,0.6390876,45.17379,2.151563
0.0239694,0.3672536,1.846121,-0.1412456,0.6897214,0.02267549,-0.7311709,0.6478904,45.21804,2.148178
0.0239256,-0.8668908,-2.046952,2.210949,0.6791755,0.01556896,-0.7345353,0.6271496,45.16906,2.201076
0.0229125,-1.440318,-1.266965,0.6757475,0.6723003,0.01019933,-0.7395592,0.5941483,45.14003,2.216559
0.0279606,-0.2145176,1.708987,-3.882751,0.6800011,0.02370561,-0.7458688,0.5881503,45.18782,2.107995
0.0258958,1.911469,0.4364216,-3.698721,0.6952962,0.02103928,-0.7383464,0.6376493,45.19912,2.012214
0.0229739,1.578502,-0.652226,0.9155002,0.6907629,0.011706,-0.7331951,0.6739137,45.18414,2.033246
0.0239006,0.4998237,1.385602,2.364728,0.6733149,0.004230911,-0.7409363,0.6858597,45.21725,2.089765
0.0229719,0.9383781,8.660041,-0.6005466,0.6832051,0.02036271,-0.7366596,0.7074161,45.41619,2.075969
0.0239041,0.8987534,8.156395,-1.081504,0.6937661,0.02055226,-0.7212076,0.7289,45.61116,2.050117
0.0219618,-1.208614,-1.548903,1.821588,0.686368,0.008673444,-0.7207667,0.7023566,45.57714,2.090122
0.0239433,-2.633759,-1.424539,0.06790549,0.6679471,0.01313912,-0.7440047,0.6392958,45.54304,2.091748
0.0229445,0.2850648,2.022607,-4.904862,0.6861769,0.02444123,-0.7421112,0.6458364,45.58945,1.979208
0.026923,2.818462,0.4278452,-2.714754,0.7024624,0.01505763,-0.7335199,0.7217178,45.60097,1.906119
0.0268997,2.98619,-3.552134,3.195963,0.6898394,0.006397914,-0.7250303,0.8020455,45.50542,1.992089
0.0219082,1.036086,-1.020666,1.459074,0.6697353,0.002720674,-0.7365776,0.8247442,45.48306,2.024055
0.0239276,0.309469,3.919279,-4.307911,0.6815373,0.01614514,-0.7277609,0.8321491,45.57684,1.920977
0.0229443,-1.437578,2.943736,-3.385294,0.7045911,0.02885561,-0.7324182,0.7991649,45.64438,1.843304
0.0249068,-1.193721,-1.496135,2.981259,0.6951375,0.02542205,-0.7366019,0.7694331,45.60711,1.917557
0.027962,1.359376,0.1356923,2.368857,0.6720326,0.01238662,-0.7381989,0.807444,45.61091,1.983795
0.0229757,1.883795,4.708889,-3.617159,0.6879118,0.01589933,-0.7415361,0.8507255,45.7191,1.900688
0.0278893,-2.207165,15.5418,-3.539343,0.7090251,0.02430067,-0.7236926,0.7891692,46.15255,1.801979
0.0269566,-1.512442,0.3901754,2.281502,0.6914622,0.02030515,-0.7223405,0.7483989,46.16306,1.86348
0.0239448,-1.186409,-3.413724,2.981872,0.6878363,0.01401815,-0.7340729,0.7199906,46.08132,1.93488
0.0248971,0.3203705,-2.71715,0.7762173,0.6933827,0.02151905,-0.7199798,0.7279668,46.01367,1.954206
0.0219406,-1.111048,-3.295724,0.8774948,0.6831847,0.007868167,-0.730372,0.7035898,45.94136,1.973459
0.0259537,-0.88603,-0.6455017,-1.449769,0.6869527,0.01301721,-0.7310261,0.680594,45.92461,1.935832
0.0249448,-0.2624589,0.9716862,-2.530375,0.6965864,0.01281524,-0.7307876,0.6740471,45.94884,1.872712
0.0279243,1.416198,3.161477,-0.9713027,0.6928326,0.02003456,-0.7358091,0.7135934,46.03713,1.845589
0.0249676,3.706666,1.402044,-0.1494611,0.6959997,0.02046294,-0.7246131,0.8061399,46.07214,1.841858
0.024896,0.8087426,-0.6234047,1.591013,0.6844653,0.01302645,-0.7157341,0.8262744,46.05661,1.881467
0.0249405,-1.778212,0.46682,-1.46511,0.6805679,0.01969333,-0.7295868,0.7819249,46.06826,1.844927
0.0239604,-1.624825,0.5792278,-2.79267,0.7074417,0.03090299,-0.7262405,0.7429935,46.08213,1.778013
0.0249365,-0.7916257,-1.516635,2.28125,0.6982468,0.02344114,-0.7303264,0.7232531,46.04432,1.8349
0.0219416,0.2209235,-1.34635,4.335828,0.683707,0.0150382,-0.7250453,0.7281005,46.01477,1.930035
0.0229167,-0.7086213,0.854412,0.7885349,0.6755034,0.01167776,-0.7210008,0.7118612,46.03436,1.948105
0.0219812,-1.782225,2.678794,-4.079802,0.6886008,0.02094347,-0.7284998,0.6726857,46.09324,1.858427
0.0289204,-0.8204723,-0.4428966,-1.057757,0.7090887,0.01760855,-0.7270476,0.6489574,46.08043,1.827836
0.025885,-0.5372447,-1.642846,4.411164,0.6902424,0.01205119,-0.7303798,0.6350508,46.0379,1.942019
0.0249349,0.2623083,2.25272,2.4992,0.6778933,0.0162599,-0.7291528,0.6415914,46.09407,2.004336
0.0319404,0.8815876,2.387869,-2.682303,0.6938482,0.01759179,-0.716569,0.6697497,46.17035,1.918662
0.0358746,-1.880145,-1.350379,-0.8705772,0.696071,0.01695714,-0.7297847,0.6023002,46.1219,1.887431
0.02693,0.1767876,1.682665,-0.05589117,0.6896406,0.02698292,-0.736413,0.6070611,46.16722,1.885926
0.0259658,2.870851,0.5406092,-0.4575108,0.6961381,0.02639662,-0.7172158,0.681605,46.18126,1.874046
0.0288885,0.1026337,-2.320738,0.05933128,0.6864215,0.01262174,-0.7269903,0.68457,46.11421,1.87576
0.0299208,-0.7857359,2.985663,-1.896417,0.6915553,0.02391017,-0.7319981,0.6610601,46.20354,1.819018
0.0289556,0.04440587,7.683981,-1.691347,0.7050784,0.02817251,-0.7211398,0.6623459,46.42604,1.770044
0.0248952,0.01897788,-0.6287214,2.159021,0.695621,0.0182508,-0.7226717,0.6628184,46.41039,1.823793
0.0259678,0.8379963,1.245597,0.2248271,0.690869,0.01517271,-0.7220154,0.6845793,46.44273,1.829631
0.0269207,0.177071,2.983616,-2.332015,0.707456,0.02043675,-0.7128291,0.6893462,46.52306,1.766852
0.0239248,-1.806705,0.06485251,-0.3460607,0.701678,0.01886544,-0.7191616,0.6461211,46.52461,1.758572
0.0249501,-1.347332,-3.414593,1.662106,0.6976673,0.02100917,-0.7321888,0.6125051,46.43941,1.800042
0.0298857,1.897603,1.45177,-1.048403,0.6861052,0.02420243,-0.7245852,0.6692163,46.4828,1.76871
0.0329325,0.09647707,3.879436,-0.4394549,0.7088545,0.03090281,-0.7436292,0.6723935,46.61056,1.754237
0.0278993,-3.095152,6.078104,2.057668,0.7009639,0.01977865,-0.7100933,0.5860409,46.78014,1.811645
0.02497,-2.091543,-1.388497,1.357869,0.6803136,0.02090973,-0.7290912,0.5338151,46.74546,1.845551
0.0339437,0.7981369,4.625574,-4.292803,0.7039244,0.02575913,-0.7261962,0.5609068,46.90247,1.699837
0.0239347,0.418728,7.404963,-0.7064782,0.7180248,0.02559906,-0.7108261,0.5709289,47.07971,1.682928
0.0239277,0.6129946,-2.299201,3.53858,0.7067376,0.01273195,-0.7112975,0.5855965,47.02469,1.767598
0.0249651,0.8165627,-5.416112,1.212157,0.6880583,0.008181274,-0.7190334,0.6059821,46.88948,1.79786
0.0279279,1.147211,-3.855904,-3.23547,0.7044985,0.02738046,-0.7125719,0.6380213,46.78179,1.7075
0.0259297,-0.5130669,-2.895205,-1.939102,0.7019227,0.02682124,-0.7220457,0.6247176,46.70672,1.657219
0.0229437,0.4926603,0.08388477,-0.7781187,0.6989834,0.02888104,-0.7216994,0.636021,46.70864,1.639366
0.0278889,0.8732748,1.746266,-1.169373,0.6989142,0.02712603,-0.7148481,0.6603757,46.75735,1.606754
0.0269519,-0.8432806,-0.5836006,-1.241375,0.7007642,0.02739147,-0.716785,0.6376477,46.74162,1.573296
0.0229357,-1.219101,0.6636458,-1.531222,0.6961384,0.02916215,-0.7292094,0.6096867,46.75684,1.538177
0.0239418,1.132669,3.731425,-3.121239,0.7080478,0.02728155,-0.7136326,0.6368049,46.84618,1.463449
0.0239451,0.2684846,1.430101,-0.8399482,0.7165486,0.02166883,-0.7082971,0.6432338,46.88042,1.443336
0.0299135,-2.039758,-3.092556,3.93938,0.6958534,0.01738832,-0.7213266,0.5822175,46.78791,1.561177
0.0278993,0.5469754,-3.697538,1.315221,0.6927043,0.01775434,-0.7234462,0.5974777,46.68475,1.59787
0.0239353,1.397233,-2.055749,-0.3469563,0.6977667,0.01835315,-0.7182322,0.6309209,46.63555,1.589566
0.0229389,0.5172511,-0.1309446,-0.6129665,0.6959921,0.01458436,-0.7218345,0.6427861,46.63255,1.575505
0.0229399,0.4588732,0.421868,-1.158579,0.7024822,0.02104204,-0.7154595,0.6533126,46.64222,1.548927
0.0229387,-0.6371664,-1.107709,-0.1552372,0.7043102,0.02472073,-0.7166377,0.6386968,46.61681,1.545367
0.0249605,0.02373614,-0.607097,-0.1057147,0.693308,0.03109221,-0.727637,0.6392893,46.60166,1.542728
0.0249396,2.0091,1.151803,-1.442658,0.7027041,0.03155409,-0.7172229,0.6893954,46.63039,1.506749
0.0319066,-0.06645934,-0.04919417,1.096654,0.7042726,0.02898114,-0.7147701,0.6872749,46.62882,1.541739
0.0269306,-1.640152,-1.160719,1.341406,0.6948465,0.026176,-0.7216459,0.6431047,46.59756,1.577864
0.0249301,-0.9183826,-2.037759,-0.6420955,0.6983516,0.023676,-0.7288526,0.6202093,46.54676,1.561856
0.0229398,0.9288035,-1.110164,-1.266727,0.6974583,0.02438251,-0.7255489,0.6415159,46.52129,1.532798
0.0249326,2.158602,-1.489205,-0.8874418,0.6999565,0.02105193,-0.7186772,0.6953354,46.48417,1.510672
0.0229469,1.304173,-1.173059,-0.1957252,0.6962122,0.01811996,-0.7209494,0.7252621,46.45725,1.50618
0.0248996,0.6981373,-0.4781332,0.03278643,0.6979272,0.01690844,-0.721182,0.7426454,46.44534,1.506997
0.0219775,0.2695679,-1.062813,0.247419,0.6970371,0.01749452,-0.7181244,0.7485698,46.42199,1.512434
0.0269284,-0.2911626,-0.6738963,0.3293167,0.6970611,0.02032362,-0.7212916,0.7407293,46.40384,1.521302
0.0278942,-0.09932217,-1.592048,-0.02450723,0.6951615,0.01899994,-0.7254915,0.7379588,46.35943,1.520619
0.0229699,0.2492683,-1.440236,-0.1753606,0.6948846,0.02313965,-0.7239954,0.7436845,46.32635,1.516591
0.0259229,0.1471745,-1.097369,0.2152794,0.6954701,0.02679895,-0.723105,0.7474997,46.2979,1.522171
0.0249375,-0.09995521,-1.418405,0.581524,0.6946167,0.0287533,-0.7238373,0.7450071,46.26253,1.536673
0.0229747,-0.09778689,-1.384369,0.6132187,0.6916869,0.02812657,-0.723387,0.7427605,46.23072,1.550762
0.0239009,-0.2729205,-1.585404,-0.1774605,0.6894038,0.02507741,-0.7253971,0.7362374,46.19283,1.54652
0.0229378,-0.5123567,-0.9865608,-1.027614,0.6952269,0.02594168,-0.7228686,0.7244851,46.1702,1.522949
0.0329469,-0.76715,-1.453118,0.1400709,0.6953396,0.02331748,-0.7320787,0.6992099,46.12233,1.527564
0.029886,1.66307,-3.352695,1.037499,0.6887478,0.02181578,-0.7310661,0.7489124,46.02213,1.558571
0.030919,2.825291,-4.676419,-0.3349657,0.6881247,0.01434009,-0.7272028,0.8362676,45.87754,1.548214
0.0319482,1.312112,-5.037677,-0.8117546,0.6896964,0.01433896,-0.7259579,0.8781872,45.7166,1.52228
0.0269261,0.5306934,-4.327438,-0.335939,0.6851762,0.0164674,-0.7370301,0.8924767,45.60008,1.513234
0.0259327,1.487069,-5.462813,-0.406448,0.6866533,0.0210593,-0.7288904,0.9310404,45.45841,1.502694
0.0239349,1.394533,-9.003898,0.1802356,0.6815113,0.02073034,-0.738026,0.9644184,45.2429,1.507008
0.0318811,3.141618,-7.140685,-1.129612,0.6722395,0.0213718,-0.7490438,1.064577,45.01525,1.470995
0.0299192,5.041371,-7.754364,-2.464912,0.6792768,0.02644834,-0.7365428,1.21541,44.78325,1.397246
0.031947,3.162505,-14.91707,-0.08788347,0.673555,0.02226803,-0.7360284,1.316443,44.30669,1.394439
0.0309415,3.031561,-11.21187,-2.099347,0.6534541,0.01793158,-0.7586121,1.410244,43.95978,1.329482
0.0279,3.569632,-7.799701,-5.443742,0.6664544,0.02412857,-0.7452953,1.509837,43.74216,1.177602
0.0259316,-0.05029203,-10.34222,-2.250998,0.6702137,0.01196832,-0.7499914,1.508533,43.47398,1.11923
0.0239702,-2.035345,-8.268889,0.3004125,0.6499709,0.01207412,-0.7613916,1.459745,43.27577,1.126431
0.0258965,-0.6968966,-5.905994,-2.401043,0.6523428,0.01370837,-0.7668675,1.441698,43.12282,1.064252
0.0269301,0.3147464,-4.486351,-3.277801,0.6554628,0.01516039,-0.7627744,1.450174,43.002,0.9759804
0.0239321,0.4563982,-7.29711,-1.613065,0.656694,0.01835461,-0.7649438,1.461096,42.82737,0.9373764
0.0239708,0.9808154,-10.77548,1.169031,0.6415569,0.01712729,-0.7743298,1.484607,42.56907,0.965399
0.0219081,2.135247,-7.420845,0.8012822,0.6408402,0.02117144,-0.7771299,1.531386,42.40649,0.9829536
0.0239355,3.455423,-4.52117,-0.9201164,0.6391384,0.023052,-0.7673315,1.614094,42.29828,0.9609302
0.0219159,1.928598,-6.237471,-1.782315,0.6339424,0.02078173,-0.7599331,1.656361,42.16158,0.9218691
0.0249334,-0.9201758,-17.06801,-1.656809,0.6452233,0.024173,-0.7665142,1.633418,41.73602,0.8805592
0.0299197,0.5285144,-29.86726,0.2518079,0.629357,0.02431381,-0.7985764,1.649231,40.8424,0.8880932
0.024966,3.313103,-29.15524,1.88078,0.6134977,0.01347071,-0.7944315,1.731946,40.11451,0.9350488
0.0318826,0.9448367,-18.19036,1.048895,0.5944583,0.007453475,-0.802182,1.762069,39.53455,0.9684902
0.0408917,-1.173094,-0.662446,-2.142333,0.6099594,0.01438354,-0.8056228,1.7141,39.50746,0.8808866
0.0309152,0.8059469,-8.368359,0.3190565,0.6054319,0.01680167,-0.805171,1.739016,39.24875,0.8907503
0.0309409,1.841142,-20.08024,2.488086,0.5901818,0.01300937,-0.8144535,1.795982,38.62745,0.9677339
0.0298962,1.843894,-11.00866,0.7533317,0.5840276,0.01759813,-0.8110646,1.851108,38.29834,0.9902557
0.0299471,0.9957116,-18.52242,0.8912374,0.5848927,0.01900427,-0.8016059,1.880926,37.74364,1.016946
0.0309306,-1.282372,-42.23653,5.423525,0.5746928,0.01509291,-0.8262725,1.841262,36.43724,1.184698
0.0328929,-2.482052,-20.38212,4.99781,0.5366637,0.01454231,-0.861306,1.75962,35.76682,1.349091
0.0299476,-0.8081935,-10.05928,0.3847215,0.5435358,0.01841765,-0.8334932,1.735416,35.46557,1.360612
0.0249061,-0.6478456,-42.48954,0.495925,0.5514336,0.01297803,-0.8178673,1.719281,34.40732,1.372964
0.0259304,-2.872859,-52.13989,5.126479,0.5215243,0.006460617,-0.8680426,1.644787,33.05531,1.505895
0.025921,-0.9171101,-17.43308,3.109722,0.4817412,0.01480749,-0.9020556,1.621014,32.60343,1.586503
0.0229527,4.745336,-6.208687,-2.707611,0.4951228,0.01702638,-0.8777296,1.729933,32.46092,1.524356
0.0239359,4.785366,-24.98604,-2.427631,0.5019307,0.002189049,-0.8265118,1.844475,31.86286,1.466248
0.0278919,-0.2877652,-61.29653,2.311913,0.4762857,0.006824339,-0.8802357,1.836448,30.15318,1.530732
0.032911,-3.778996,-31.04019,2.536541,0.4314021,0.008087374,-0.935688,1.712078,29.13162,1.614212
0.0239347,1.087331,-7.753201,-3.206388,0.4374281,0.01208591,-0.90862,1.738103,28.94605,1.537468
0.0239621,2.12507,-19.72952,-2.547369,0.4433376,0.01131467,-0.8803607,1.789024,28.47329,1.476428
0.0229475,-0.4105779,-45.46357,1.536389,0.4455435,0.0147574,-0.8825164,1.779602,27.43001,1.511684
0.0239319,-2.952428,-53.15333,6.087099,0.4046018,0.009037179,-0.9499815,1.708945,26.15795,1.65736
0.024927,-0.9902729,-24.61457,4.543722,0.3639763,0.01215037,-0.9502094,1.68426,25.54438,1.770621
0.0249089,1.550465,-3.731177,-2.648468,0.3798221,0.01273136,-0.9165489,1.722881,25.45144,1.704651
0.0249603,-1.351837,-6.601714,-5.202358,0.3886117,0.005066552,-0.9145336,1.689138,25.28666,1.574798
0.0279348,-1.728144,-27.80656,-3.379034,0.385482,0.01315379,-0.921135,1.640863,24.50989,1.480405
0.0259299,0.2185475,-44.81059,3.352548,0.3714318,0.01451862,-0.9524312,1.64653,23.34796,1.567337
0.0249734,2.817249,-46.67553,8.006036,0.3420178,0.003187751,-0.957648,1.716886,22.18231,1.767275
0.0238964,3.690061,-31.87598,5.43533,0.2997943,0.004695377,-0.9561903,1.805065,21.42059,1.897159
0.0229748,0.9545612,-7.984117,-2.583881,0.3117207,0.00772002,-0.9438891,1.826996,21.23716,1.837795
0.030892,-3.054573,-8.741968,-4.990736,0.321275,0.01101893,-0.9377438,1.732634,20.9671,1.683621
0.0279483,-1.822419,-22.07189,-2.739024,0.3122748,0.01317053,-0.9737536,1.681701,20.35023,1.60707
0.0309031,2.069255,-21.17325,0.5342163,0.2973786,0.01412136,-0.9616706,1.745647,19.69591,1.623579
0.032893,0.8430514,-16.16529,0.3931105,0.282415,0.009964889,-0.9526882,1.773378,19.16418,1.63651
0.0269277,-2.509124,-12.45741,-2.060713,0.278827,0.01035825,-0.9592258,1.705813,18.82874,1.58102
0.0249104,-3.66019,-10.02089,-2.166219,0.2831906,0.01239287,-0.9684745,1.614636,18.57911,1.527058
0.0299166,0.158011,-12.42901,-0.3913073,0.2584721,0.008657603,-0.9928263,1.619363,18.20728,1.515352
0.025961,5.020167,-7.546918,-3.148134,0.2632676,0.01112628,-0.9752224,1.749692,18.01135,1.433623
0.0219458,4.954294,-8.159069,-4.054432,0.2631711,0.007568434,-0.9542874,1.858418,17.83229,1.344645
0.0249,1.694761,-24.2556,-2.338451,0.2681206,0.008294515,-0.9499319,1.900617,17.22833,1.286418
0.0249582,-1.67176,-29.51779,2.564085,0.2551207,0.01024757,-0.9771662,1.858893,16.49162,1.350413
0.0309298,0.7508838,-21.11419,4.154835,0.2248117,0.008995677,-0.9932337,1.882118,15.83856,1.478921
0.0239716,2.927955,-14.98109,1.034138,0.215902,0.007459193,-0.9701857,1.952306,15.47944,1.503711
0.0269192,-0.5878361,-15.9919,-1.077886,0.2206513,0.01242054,-0.9602875,1.936481,15.04895,1.474695
0.0239108,-2.563249,-26.43745,0.4537039,0.2149411,0.01341077,-0.9846205,1.875192,14.41681,1.485544
0.0269289,-1.375318,-19.66595,2.482975,0.1855845,0.007939182,-1.00806,1.838156,13.88723,1.552407
0.0279232,1.222704,-3.324601,0.1470751,0.1883002,0.00696814,-0.9886665,1.872298,13.7944,1.556514
0.028922,1.430515,-3.278831,-1.687296,0.1878023,0.004121441,-0.9647897,1.913671,13.69957,1.507714
0.0279289,-1.608523,-15.28417,-1.778063,0.1932033,0.007593081,-0.9691128,1.868747,13.2727,1.458055
0.0309493,-0.7260016,-27.52085,2.297131,0.1811285,0.007023222,-1.001869,1.846278,12.42094,1.529149
0.025898,2.970396,-32.72641,4.799777,0.1542919,0.007119905,-0.979641,1.923205,11.5734,1.653454
0.0259578,-0.354113,-34.67282,3.713163,0.1447794,0.008178605,-0.9801173,1.914013,10.67337,1.74984
0.0249067,-4.194326,-26.38979,2.208426,0.1268227,0.01312164,-1.001385,1.809546,10.01608,1.804844
0.0269311,-3.236072,-14.30266,-1.202262,0.1150001,0.01290123,-1.013053,1.722396,9.630897,1.772466
0.0369328,1.856076,-15.92426,-1.285102,0.1181567,0.01635875,-0.9800172,1.790946,9.042769,1.725004
0.033874,0.5355399,-29.51001,2.107453,0.09930427,0.01246166,-0.9943699,1.809087,8.043147,1.796392
0.0318788,-0.1680372,-22.86855,2.133897,0.08550277,0.01270526,-1.00373,1.80373,7.314125,1.864418
0.0339386,0.9833605,-18.15324,0.7807912,0.06634054,0.01016267,-1.001651,1.837104,6.69803,1.890917
0.0309142,-0.0460413,-22.63505,-1.014376,0.06356496,0.006790641,-0.9921474,1.83568,5.998285,1.859558
0.0318904,-1.844079,-22.92795,0.8647094,0.05474292,0.01127799,-1.012081,1.776872,5.267104,1.887134
0.0299242,1.259684,-11.71343,2.11124,0.04060512,0.008233713,-1.022939,1.814567,4.916589,1.950311
0.0308914,1.823106,-5.669384,0.8277019,0.03094778,0.008813998,-0.9882403,1.870885,4.741454,1.97588
0.0349091,-2.290195,-26.60665,1.204678,0.02865737,0.01280881,-1.003072,1.790936,3.812639,2.017934
0.0349035,0.6239122,-15.26024,3.359853,0.0006866124,0.01260828,-1.010401,1.812713,3.280004,2.135205
0.0299206,1.716259,-17.91972,1.270766,-0.001632456,0.007066073,-0.98632,1.864065,2.743835,2.173227
0.0289224,-1.404755,-24.96176,-0.1204606,-0.005211607,0.006069405,-1.004144,1.823436,2.021881,2.169743
0.0299203,-2.355302,-9.015157,-0.117645,-0.01904469,0.007395307,-1.011045,1.752964,1.752144,2.166223
0.0269262,-0.8390076,-1.466262,0.1375172,-0.02002152,0.00261763,-1.009251,1.730373,1.712664,2.169926
0.0289246,0.3733078,-4.319163,-1.6796,-0.02864239,0.007839955,-0.9926497,1.741171,1.587734,2.121344
0.0309192,-0.5325196,-13.44946,-3.430277,-0.02021977,0.007710718,-1.004193,1.724706,1.171887,2.015282
0.0298949,0.635767,-3.244212,0.4094821,-0.03240064,0.01292694,-1.007492,1.743712,1.074902,2.027524
0.0269146,1.177169,-2.370845,0.1678651,-0.03735881,0.01151065,-0.99984,1.775395,1.011091,2.032042
0.0279021,-1.09112,-2.167876,-1.897611,-0.03255341,0.01503741,-0.9944863,1.744951,0.9506032,1.979095
0.0259288,-3.672198,-8.004299,-0.6467996,-0.02942776,0.01854775,-1.024578,1.649735,0.7430613,1.962324
0.0259672,0.3620522,-5.49029,1.885814,-0.03728784,0.01566495,-1.018687,1.659136,0.6004938,2.011293
0.0259309,3.071448,-3.241364,0.4191958,-0.04496907,0.00851014,-0.9944374,1.738782,0.5164424,2.022163
0.0308788,0.8311009,-7.025033,-1.145099,-0.03853201,0.006760586,-1.002339,1.764445,0.2995178,1.986804
0.0299223,-0.7318738,-1.383607,0.2621254,-0.04652771,0.005043457,-1.006616,1.742546,0.2581171,1.994648
0.0279244,0.0126707,-1.132701,-0.921331,-0.05035039,0.005368214,-1.002982,1.7429,0.2264871,1.96892
0.0239663,-0.1286982,-0.1600594,-1.80073,-0.03767049,0.01056274,-1.004386,1.739815,0.222651,1.925763
0.0259306,0.6731926,0.1286525,1.329362,-0.04345163,0.01234289,-1.000644,1.757271,0.2259871,1.960234
0.0289607,0.2276462,-1.580596,0.8906337,-0.05521234,0.01238074,-0.9960063,1.763864,0.1802119,1.986028
0.0268886,-2.055171,-1.063219,-1.699248,-0.0430229,0.02026371,-0.9981325,1.708604,0.1516234,1.940337
0.0369053,-0.1439162,-4.328466,0.7600706,-0.04519227,0.01703846,-1.010316,1.703292,-0.008119911,1.968388
0.0329418,-0.4035698,-1.515583,0.5168527,-0.05757349,0.01094838,-1.002542,1.689998,-0.05804596,1.985414
0.029912,-0.0007088628,-0.5240533,-1.613982,-0.04521473,0.01212994,-1.006551,1.689977,-0.07372144,1.937137
0.0279007,1.694658,-0.7267286,-0.04699245,-0.04818743,0.00829557,-1.001097,1.737259,-0.09399767,1.935825
0.0339463,-0.09677785,-9.610909,0.7573754,-0.05677688,0.005166168,-0.9953397,1.733974,-0.4202525,1.961536
0.0258936,0.5414294,-13.60007,0.01524339,-0.06951975,0.009135492,-1.013486,1.747993,-0.7724073,1.96193
0.0279253,1.806981,-3.281747,-1.92777,-0.05484805,0.008171435,-1.005347,1.798454,-0.864051,1.908097
0.034905,0.9286177,-0.6252801,0.9626547,-0.06178359,0.007832015,-0.99575,1.830867,-0.8858764,1.941698
0.0289603,-1.807292,-0.97914,-0.3660823,-0.06661543,0.0135897,-1.00202,1.778527,-0.9142326,1.931096
0.0299502,-1.397901,-0.3749855,-1.123029,-0.05861621,0.01795192,-1.009983,1.73666,-0.9254635,1.897461
0.0288948,1.935559,-0.1683483,0.6291818,-0.06650425,0.0118705,-1.000437,1.792588,-0.9303279,1.915641
0.0269521,1.192638,-2.002963,-0.6034608,-0.06331182,0.01243655,-0.9915692,1.824732,-0.9843119,1.899377
0.026901,-0.8328525,-13.69491,0.39358,-0.06652879,0.01303016,-1.009623,1.802327,-1.352719,1.909965
0.0269577,0.5606645,-9.156911,1.755704,-0.08082478,0.007148852,-1.016212,1.817441,-1.599568,1.957294
0.0259063,2.059222,-1.544662,-0.2937267,-0.07906616,0.006307011,-0.998545,1.870788,-1.639585,1.949685
0.0359037,-1.050565,-0.2063228,-0.4659462,-0.07479361,0.004248286,-0.9981395,1.833069,-1.646992,1.932956
0.0289485,-1.055869,-0.3839475,0.5912986,-0.07572161,0.008311029,-1.003884,1.802503,-1.658107,1.950073
0.0259639,0.1794299,-0.312606,0.3566491,-0.07999308,0.008412414,-1.00369,1.807162,-1.666224,1.959333
0.0269226,0.8425161,-0.0088433,-0.7479444,-0.07711732,0.0109645,-0.9999601,1.829844,-1.666462,1.939196
0.0348794,-0.138859,-1.050086,-0.1661286,-0.07912247,0.01116797,-0.9952026,1.825001,-1.703088,1.933402
0.0239691,-1.09122,-1.31703,-0.4234521,-0.08206178,0.01440218,-1.006248,1.798846,-1.734656,1.923252
0.0318858,1.059034,-6.162858,-0.2873479,-0.07899745,0.01528181,-1.007921,1.832614,-1.931164,1.91409
0.0299206,2.723714,-9.225039,1.391293,-0.08544345,0.009977548,-0.9857267,1.914109,-2.207182,1.955718
0.0259325,0.1790426,-14.40749,1.938791,-0.08322127,0.005965351,-0.9867079,1.918752,-2.580804,2.005996
0.0249602,-1.036438,-7.768909,1.570079,-0.1004612,0.005958417,-1.015846,1.892882,-2.774718,2.045186
0.0269027,1.449023,3.547119,-0.5997536,-0.09977046,0.007209955,-1.00161,1.931865,-2.679291,2.029051
0.0249333,1.830704,3.122972,-2.374053,-0.09345173,0.003602615,-0.9872165,1.97751,-2.601425,1.969858
0.0269267,-2.110219,1.233186,-1.878443,-0.09007027,0.004894669,-0.9956243,1.920689,-2.568219,1.919277
0.0279488,-2.365242,0.9255391,-0.4078697,-0.08988622,0.009900771,-1.013974,1.854583,-2.542351,1.907878
0.028929,2.668384,0.7829483,0.5744554,-0.09649907,0.005743322,-0.9991289,1.931777,-2.519701,1.924496
0.0269029,2.009528,2.653598,-0.4965575,-0.09670492,0.007650096,-0.9922538,1.985839,-2.448312,1.911137
0.0239603,-0.8029979,4.468353,-1.615247,-0.08278815,0.01090256,-0.9945136,1.966599,-2.341249,1.872436
0.0249723,-2.479176,5.452215,0.6893095,-0.08031736,0.0135025,-0.9982654,1.904688,-2.205095,1.889649
0.0258949,-3.45942,13.5074,1.411824,-0.09623724,0.01211868,-1.003004,1.815107,-1.855322,1.926208
0.0249568,-2.969103,17.39234,-2.411754,-0.07347934,0.0143949,-0.9992792,1.741008,-1.421265,1.866018
0.0259328,-2.528468,8.431497,-2.073411,-0.06040014,0.01452083,-0.9909065,1.675438,-1.202612,1.812249
0.0239106,-3.897858,2.928547,1.643116,-0.06098458,0.01411699,-1.004032,1.582237,-1.132589,1.851537
0.029951,1.380332,3.409304,2.573598,-0.07650028,0.01031048,-1.011357,1.62358,-1.030477,1.928619
0.0288931,3.525466,6.334882,0.1357236,-0.06230051,0.008301746,-0.9933015,1.725441,-0.8474425,1.93254
0.0309173,-2.311048,2.00052,0.7003546,-0.06301565,0.008920349,-0.995022,1.65399,-0.7855918,1.954193
0.0289571,-3.813749,5.302638,-0.1131766,-0.06695707,0.01379817,-1.015262,1.543555,-0.6320428,1.950916
0.0289366,-0.922307,20.48722,-4.480154,-0.05834284,0.01116713,-0.9992398,1.516867,-0.03921235,1.821276
0.0279223,-1.923066,16.94127,-6.822541,-0.02944351,0.01697282,-0.9896547,1.46317,0.4338269,1.630774
0.0278874,-5.716876,-0.1434034,0.6120249,-0.02021345,0.02563041,-1.000147,1.303741,0.4298278,1.647842
0.0299211,-1.424186,-5.587078,6.356491,-0.04614016,0.02429473,-1.037367,1.261128,0.2626563,1.838035
0.0279589,6.288649,5.6387,0.808516,-0.06386226,0.01528425,-0.9979302,1.436952,0.4203081,1.860641
0.0298827,-1.097464,10.25417,-4.465245,-0.0310019,0.01573447,-0.9697021,1.404157,0.7267305,1.727207
0.0269289,-9.02587,5.360603,-1.40915,-0.02802194,0.01648842,-1.00766,1.1611,0.8710856,1.68926
0.0249575,-3.710174,-5.035414,1.923802,-0.01976807,0.03030483,-1.041908,1.068503,0.7454143,1.737274
0.0239451,6.715341,-12.03712,4.789911,-0.03547938,0.01793638,-1.028579,1.229303,0.4571842,1.851969
0.0338747,7.347693,6.716228,0.06858512,-0.06805317,0.00407895,-0.9680271,1.478204,0.6846945,1.854292
0.0339085,-9.628607,15.4986,-6.418063,-0.02770787,0.008920866,-0.9893214,1.151712,1.210229,1.636665
0.0309219,-11.54537,11.01953,-3.320503,-0.01400374,0.03358112,-1.034951,0.7947072,1.550974,1.533989
0.0279211,0.07035282,-1.604205,-0.6670385,-0.005109862,0.03912254,-1.03603,0.7966715,1.506183,1.515364
0.0319198,6.691358,6.474957,1.323221,-0.04401792,0.01865676,-0.9958268,1.010258,1.712862,1.557601
0.033907,-1.657662,13.84309,-4.492015,-0.01758391,0.01934525,-0.9711073,0.954052,2.18224,1.40529
0.0349099,-8.173162,3.321824,-0.1156775,0.002788057,0.03502905,-1.020885,0.6687277,2.298204,1.401252
0.0319116,1.398169,-5.905035,4.295687,-0.00476806,0.02865859,-1.041124,0.7133455,2.109765,1.538334
0.0448497,4.292556,1.336264,-1.982148,-0.01028285,0.01638201,-0.9794968,0.9058654,2.169696,1.449435
0.0438471,-4.816921,-0.7846678,-0.05189274,-0.004719648,0.02602105,-1.0116,0.6946574,2.135291,1.44716
0.0359044,2.066159,-1.931521,3.710735,-0.02761017,0.02165749,-1.013625,0.7688416,2.065941,1.580392
0.0359037,2.954155,4.219608,-2.636618,-0.0213844,0.01713738,-0.990536,0.8749067,2.21744,1.485728
0.0438825,-4.750325,0.9822809,-1.773118,0.001254988,0.03338959,-1.014051,0.6664506,2.260545,1.407919
0.0478732,4.388656,-1.920519,2.610229,-0.02368576,0.02283882,-1.004989,0.8765495,2.168604,1.532879
0.0388953,0.4920541,4.479612,-3.325226,-0.001106182,0.02207038,-0.9841263,0.8956881,2.34284,1.403543
0.0409299,-5.108278,-0.2286595,0.3680241,-0.004785402,0.02727818,-1.017108,0.6866068,2.333481,1.418606
0.0378584,4.041101,-4.526114,2.881631,0.0007557045,0.02182805,-1.019898,0.8395964,2.162129,1.5277
0.0398947,2.65442,3.569671,-2.38771,-0.01479939,0.01440125,-0.9784622,0.9454937,2.30454,1.432443
0.0498669,-6.710669,2.002397,0.26829,-0.004443323,0.02892942,-1.026531,0.6108534,2.404393,1.445822
0.0349075,3.949968,-0.7443066,1.493348,-0.001277635,0.03107017,-1.015814,0.748737,2.378412,1.497951
0.0378988,1.960894,5.128427,-0.4913312,-0.01336007,0.01850468,-0.9887128,0.8230525,2.572773,1.47933
0.0359077,-3.27658,10.26051,-2.270009,0.01241593,0.02801988,-1.00672,0.705398,2.941204,1.397819
0.0428795,1.343912,8.795606,0.9032195,0.0002868897,0.0262428,-1.023183,0.7630243,3.318355,1.436549
0.0428865,1.004525,32.28898,-3.612593,0.03354195,0.02093668,-0.9735384,0.8061049,4.703117,1.281618
0.0339118,-4.323827,7.019815,0.9155202,0.04609375,0.02590602,-0.9962732,0.6594762,4.941172,1.312665
0.0468736,0.9897766,21.76652,1.22518,0.03636426,0.0247517,-1.031334,0.7058706,5.961447,1.370093
0.0408925,0.328616,30.06112,-1.401058,0.08039567,0.02671671,-0.9661864,0.7193085,7.190722,1.3128
0.043882,-3.380608,9.316171,3.793959,0.07085429,0.02481937,-1.017921,0.5709606,7.599534,1.479287
0.0448794,0.436729,52.38036,-2.59727,0.1204441,0.03287169,-0.9831849,0.5905608,9.950333,1.362723
0.040889,-0.4705356,7.006728,2.10123,0.1364399,0.02622463,-0.9824232,0.5713211,10.23683,1.44864
0.0448797,-1.922741,30.18469,1.967941,0.1366573,0.03389386,-1.015709,0.485029,11.59151,1.536961
0.0448791,2.447596,18.37023,-1.376478,0.1745324,0.02603003,-0.9638194,0.5948749,12.41595,1.475186
0.0458777,-3.514985,13.9434,3.940834,0.1573408,0.02546421,-1.01907,0.4336155,13.05564,1.655982
0.0319147,0.8085874,44.9398,-0.7021592,0.18785,0.03119486,-0.9786986,0.4594213,14.48988,1.633573
0.0309171,2.332253,8.698157,-0.07409173,0.2037888,0.02468508,-0.961879,0.5315279,14.7588,1.631282
0.032912,-2.110583,3.643949,1.491311,0.2048477,0.03315811,-1.005323,0.4620644,14.87873,1.680364
0.0299204,-0.4250976,30.19819,0.2126691,0.223185,0.03605754,-0.9881637,0.4493453,15.78227,1.686727
0.0289284,2.520873,30.76749,-0.5151025,0.2302521,0.03324705,-0.9645622,0.5222701,16.67233,1.671826
0.0329112,1.174009,4.059772,2.477177,0.2417628,0.02696331,-0.9664267,0.5609081,16.80594,1.753353
0.033888,-2.330624,30.65708,-0.9422652,0.2381908,0.02756185,-0.9854655,0.4819279,17.84485,1.721422
0.0299084,-0.5339369,32.9831,-3.614136,0.2751355,0.03173746,-0.9639037,0.4659587,18.83132,1.613329
0.0289121,1.054931,7.588259,2.071448,0.2852192,0.02808833,-0.9590256,0.496459,19.05071,1.673218
0.0289501,-0.199646,12.46338,2.306388,0.2638184,0.02308603,-0.9741525,0.4906792,19.41153,1.739989
0.0298912,-1.191486,40.31643,-3.256017,0.2971651,0.03046361,-0.9592316,0.4550643,20.61663,1.642662
0.032916,0.7648447,24.65658,-0.3724777,0.3259927,0.03297118,-0.9310383,0.4802399,21.42823,1.630402
0.0448775,-1.074237,5.259561,3.824733,0.30904,0.02895318,-0.9626521,0.4320309,21.66427,1.802046
0.0319456,0.5718437,26.80003,-1.776099,0.3313763,0.03290734,-0.954508,0.4502988,22.52041,1.745308
0.0329582,0.6954346,16.1974,1.986162,0.3545238,0.03003596,-0.9291177,0.473219,23.05425,1.810768
0.0418499,-1.647328,12.13358,1.678852,0.3355097,0.02173272,-0.9602959,0.4042785,23.56204,1.881028
0.0359088,0.2905011,34.31179,-3.043222,0.3776594,0.03019132,-0.93668,0.4147101,24.79413,1.77175
0.0468715,0.8021159,7.634122,4.997698,0.3847507,0.02507038,-0.9144425,0.4523064,25.15195,2.005999
0.0379006,-0.9004207,11.97761,1.218102,0.3756949,0.02466781,-0.9335549,0.41818,25.60591,2.052166
0.0299539,0.1319426,16.51916,-2.04881,0.4028776,0.0283799,-0.9224117,0.4221322,26.10073,1.990796
0.0278882,0.1828465,14.76767,1.179737,0.4059471,0.02730465,-0.9238526,0.4272314,26.51257,2.023697
0.0249698,0.302468,18.25927,1.513737,0.4054051,0.02690262,-0.9188364,0.434784,26.9685,2.061495
0.0258984,1.386594,19.61388,-0.5531306,0.4170013,0.02615353,-0.9084039,0.4706946,27.47647,2.047169
0.0268963,0.5809206,16.23833,-1.02721,0.4253294,0.02736266,-0.9009395,0.4863192,27.91322,2.019541
0.0289199,-0.3532907,12.54911,-0.0576459,0.4304651,0.02783403,-0.913254,0.4761021,28.27614,2.017874
0.0249566,-0.1769638,25.2148,-0.5917269,0.4433703,0.02751156,-0.9110153,0.4716856,28.90542,2.003107
0.0249101,1.048068,31.65199,-1.184543,0.4505183,0.02658553,-0.8953674,0.4977931,29.69387,1.9736
0.0279245,1.45379,22.79401,-0.000919193,0.4676318,0.02526695,-0.8873233,0.5383894,30.33038,1.973574
0.0229778,0.7485187,16.30525,2.101207,0.474975,0.0247528,-0.8784118,0.5555888,30.70504,2.021855
0.0249296,-0.9673591,13.64605,3.502585,0.472128,0.02417609,-0.8854374,0.5314729,31.04523,2.109173
0.0229393,-1.355231,13.40053,2.870414,0.4786872,0.02529106,-0.8833886,0.5003849,31.35263,2.175019
0.026901,-1.460363,15.03238,3.284768,0.4932626,0.02507615,-0.8778193,0.4610997,31.75702,2.263382
0.0269302,-2.005593,13.6381,4.077694,0.4807777,0.02119932,-0.8724821,0.4070886,32.12429,2.373195
0.0239711,-2.641549,13.22645,1.229604,0.4897256,0.02346925,-0.8772605,0.3437678,32.44135,2.40267
0.0239076,-2.135367,17.62537,-0.6587204,0.5003217,0.02485454,-0.8763865,0.2927163,32.86272,2.386922
0.0219755,-1.155136,20.405,-0.473452,0.5138283,0.02849501,-0.8638167,0.2673316,33.31113,2.376517
0.0239358,-0.5199004,17.23428,0.7584769,0.5165735,0.02847145,-0.85839,0.2548874,33.72365,2.394672
0.0209432,0.7409464,7.314524,1.588411,0.5155833,0.02698986,-0.8565736,0.2704052,33.87684,2.427938
0.0229387,0.737042,2.092614,1.129686,0.5153546,0.02357142,-0.8567226,0.287312,33.92484,2.453852
0.0219093,-0.05497876,2.67784,-0.1831645,0.5129117,0.02282397,-0.8561446,0.2861075,33.98351,2.449839
0.0249336,-1.137065,13.76142,-2.664201,0.5179652,0.02410233,-0.8613451,0.2577563,34.32663,2.383411
0.0259597,0.998498,17.62326,-2.568839,0.5395225,0.02998267,-0.8496424,0.283677,34.78413,2.316724
0.0239346,3.13717,6.540247,0.7347389,0.539237,0.02677477,-0.8447649,0.358764,34.94067,2.33431
0.021906,1.193497,2.735469,2.587675,0.5324522,0.02131356,-0.8359371,0.3849087,35.00059,2.390996
0.0229313,-1.812264,2.4323,1.761944,0.5292365,0.02281382,-0.843443,0.3433512,35.05637,2.431399
0.021933,-2.822031,7.748956,-0.6299188,0.5308278,0.02387651,-0.8553063,0.2814555,35.22632,2.417583
0.0249022,-0.07845637,9.943863,-2.416331,0.5446935,0.03101413,-0.8543528,0.2795018,35.47395,2.357411
0.0289551,4.390594,5.798417,0.1988024,0.5543298,0.03171962,-0.843689,0.4066319,35.64184,2.363168
0.0258973,5.379163,1.967829,2.900589,0.5417176,0.02118157,-0.8464894,0.5459377,35.6928,2.438285
0.0249711,3.208249,7.170647,-0.7239591,0.5343968,0.0138534,-0.8326553,0.6260512,35.87186,2.420207
0.0249304,0.1925402,12.34839,-4.760234,0.5471834,0.01977356,-0.8329491,0.6308513,36.17971,2.301533
0.0219428,-0.6658277,11.05968,-3.579961,0.5731665,0.02748126,-0.8360118,0.6162412,36.42239,2.222978
0.0239003,1.480625,4.139404,0.7394334,0.558228,0.02365779,-0.8403876,0.6516286,36.52132,2.240651
0.0229378,3.658001,7.560201,0.7246411,0.5555886,0.01755342,-0.8421779,0.735535,36.69474,2.257272
0.0259662,4.062799,13.65423,-1.544153,0.5621617,0.01999911,-0.8198946,0.8410305,37.04929,2.217177
0.0229047,2.307811,5.836604,-1.217367,0.5696409,0.01802549,-0.811727,0.8938902,37.18297,2.189293
0.0239356,-1.180502,1.242443,-0.01086068,0.5675955,0.01835087,-0.8253558,0.8656342,37.21271,2.189033
0.0289591,-0.7696481,5.886713,0.09944215,0.5655507,0.01990031,-0.8394663,0.8433459,37.38319,2.191913
0.0259233,1.383961,10.84634,-0.1385962,0.5762146,0.02313824,-0.8233792,0.8792227,37.66436,2.18832
0.0239063,1.05366,3.416984,2.161585,0.5791493,0.02136978,-0.8124462,0.9044118,37.74605,2.239996
0.0259318,-0.6818204,1.547264,3.016548,0.5701599,0.01922095,-0.8259315,0.886731,37.78617,2.31822
0.0249329,0.8163329,5.453215,1.045242,0.578063,0.01973152,-0.8238705,0.9070845,37.92213,2.344281
0.0219779,1.378453,8.323799,1.469318,0.5918404,0.018372,-0.8119447,0.93738,38.10508,2.376574
0.0209346,0.9712876,3.257083,4.669395,0.5839195,0.01687169,-0.8120515,0.9577135,38.17326,2.474325
0.023946,0.1656947,1.881822,4.292771,0.5713159,0.01098898,-0.8172712,0.9616812,38.21832,2.57712
0.032876,-0.7229325,3.562907,-0.2086095,0.585819,0.008673982,-0.8264264,0.9379141,38.33546,2.570262
0.0269535,-2.146464,7.748695,-0.428367,0.5889559,0.01765025,-0.8155396,0.8800594,38.54431,2.558716
0.0328892,0.3945918,2.202194,1.228705,0.5908128,0.01755274,-0.8179691,0.8930372,38.61674,2.599127
0.0299189,1.46417,1.553209,2.232883,0.5891317,0.01393899,-0.8080859,0.9368436,38.66321,2.665932
0.0329123,-0.4168732,1.663991,0.675824,0.5823144,0.01599612,-0.8099933,0.9231233,38.71798,2.688175
0.0269269,-0.6907349,1.462896,-1.600183,0.5922058,0.0184957,-0.8119394,0.904524,38.75737,2.645087
0.0258984,-0.3356916,0.4855289,-0.8059114,0.5962443,0.01937887,-0.8134777,0.8958301,38.76994,2.624215
0.0309157,2.364691,1.355119,0.6825779,0.5899403,0.01545721,-0.8155428,0.9689362,38.81184,2.645318
0.0289267,3.214315,1.301252,0.3660026,0.5937691,0.009066737,-0.806592,1.061916,38.84948,2.655905
0.0259246,2.260293,-0.1182559,0.5906192,0.5904193,0.004807485,-0.8109525,1.120513,38.84641,2.671216
0.0239007,2.472465,0.9913356,-0.6483697,0.5910743,0.003369059,-0.8145092,1.179607,38.8701,2.65572
0.024934,3.373024,10.88056,-1.525944,0.5917025,0.005218523,-0.8168177,1.26371,39.1414,2.617672
0.0229532,3.222786,19.23395,-1.137677,0.6074096,0.01623995,-0.7743839,1.337683,39.58288,2.591559
0.0239334,0.5418937,4.569255,1.248879,0.6070437,0.003657621,-0.7918811,1.350652,39.69223,2.621449
0.0258939,-0.8316611,0.006462158,1.715494,0.5996917,0.009061428,-0.8017395,1.329117,39.6924,2.665869
0.0259641,-0.5638075,1.277349,-0.8220711,0.5985681,0.01858595,-0.8027906,1.314479,39.72557,2.644525
0.0258966,0.094262,0.8416912,-1.698674,0.6088556,0.01388541,-0.8049043,1.31692,39.74736,2.600535
0.024963,0.8509963,0.2687418,0.3955735,0.612473,0.01228604,-0.800581,1.338163,39.75407,2.61041
0.0219388,0.5684028,1.596076,1.61518,0.6021049,0.008885019,-0.8102918,1.350633,39.78909,2.645845
0.026877,1.826976,8.392049,-0.3994143,0.5947753,0.01300545,-0.8107203,1.399737,40.01464,2.63511
0.0289458,2.940063,9.168684,-4.140541,0.6241044,0.006345454,-0.7805004,1.484839,40.28004,2.515259
0.0229307,0.6460345,1.032698,0.1302816,0.6151621,-0.001771237,-0.79611,1.499653,40.30372,2.518246
0.0258977,0.815584,3.367618,1.144527,0.5990244,0.004569178,-0.8059462,1.520775,40.39093,2.547887
0.0289496,2.99564,13.13171,-3.523112,0.617663,0.009095248,-0.7945336,1.607498,40.77109,2.445894
0.0249078,3.940946,10.04249,-3.145323,0.642657,0.001959325,-0.7691503,1.705658,41.02123,2.367551
0.0269278,0.237617,-0.2547273,3.597478,0.6222637,-0.002529808,-0.7873258,1.712056,41.01437,2.464423
0.0249314,0.3404413,1.655812,1.589009,0.6145685,0.007952601,-0.7900438,1.720544,41.05565,2.504039
0.0239704,1.260352,1.491513,-1.494226,0.6296883,0.006354912,-0.7781034,1.750755,41.0914,2.468222
0.0249227,-1.459108,-0.1208294,0.9939007,0.6226272,0.005179925,-0.7898422,1.71439,41.08839,2.492993
0.0239441,-1.179952,1.549078,1.063315,0.6136787,0.005552619,-0.7969355,1.686137,41.12548,2.518453
0.0279268,1.6185,9.177813,-2.153167,0.6256915,0.009118874,-0.792597,1.731337,41.38179,2.458322
0.0268939,2.492669,7.000145,-1.572452,0.6359512,0.006947684,-0.7711587,1.798375,41.57005,2.416033
0.0249741,0.5893988,0.7257335,1.096909,0.6291255,0.001118441,-0.7804753,1.813094,41.58818,2.443427
0.0268874,-0.01538435,2.464864,-0.06864385,0.6225317,0.005244601,-0.7812626,1.812681,41.65445,2.441581
0.0259296,0.5119051,2.120834,-2.338709,0.6327561,0.005033869,-0.7793009,1.825954,41.70944,2.38094
0.0239627,0.5245402,-0.4366114,-1.011,0.6364648,-0.002017173,-0.7812656,1.838524,41.69898,2.356714
0.0239114,0.8979892,0.7524986,0.4932043,0.6304104,-0.0009169923,-0.7856219,1.859996,41.71697,2.368507
0.0219756,2.036343,1.996933,-0.3543213,0.6304428,0.004413959,-0.7794559,1.904746,41.76086,2.36072
0.0288873,1.165307,0.3833974,-0.3498483,0.6349009,0.0009749299,-0.7732965,1.938408,41.77193,2.350614
0.0269597,-1.043443,-0.1953431,1.286548,0.6244276,-0.0008256873,-0.7850813,1.910277,41.76666,2.385299
0.0289175,0.5959903,5.633886,-0.5591582,0.6189436,0.008330229,-0.7887622,1.927512,41.92958,2.369129
0.0229454,2.435988,19.55005,-3.484338,0.6382153,0.009985361,-0.7674329,1.983407,42.37817,2.28918
0.0268918,2.257041,5.824143,-1.276613,0.6561809,0.00230616,-0.7569706,2.044102,42.53479,2.254849
0.0239354,-0.2964136,-0.1641405,2.269786,0.6430669,-0.000215116,-0.7723473,2.037008,42.53086,2.309178
0.022937,0.1629593,2.265521,0.9960108,0.6320592,0.00571277,-0.7717049,2.040745,42.58282,2.332023
0.0219404,0.799561,2.34296,-2.08396,0.646367,0.00425877,-0.7635732,2.058288,42.63423,2.2863
0.0269232,-1.004666,-0.9269103,-0.77248,0.6588473,0.002136578,-0.7663779,2.031239,42.60927,2.265502
0.0259356,-1.806176,-0.1057774,2.613781,0.6409348,-0.0003092689,-0.7780125,1.984395,42.60653,2.333292
0.023903,0.4375184,2.001117,0.5102479,0.6317605,0.004895136,-0.7774753,1.994853,42.65436,2.345489
0.0239362,2.522557,1.127548,-2.321407,0.6469752,0.000222276,-0.7620002,2.055233,42.68135,2.289923
0.0229745,0.2412703,-1.068706,-0.4947246,0.6540492,-0.0006023357,-0.7616746,2.060776,42.6568,2.278557
0.0219415,-1.276488,0.5827119,0.9151269,0.6337175,0.002459837,-0.7771006,2.032768,42.66959,2.298636
0.0229063,0.6296691,3.082714,-1.462975,0.640962,-0.0002928684,-0.7804636,2.047192,42.7402,2.265125
0.0219666,1.529155,16.98703,-3.981643,0.6517177,-0.001282546,-0.7711462,2.080782,43.11335,2.177662
0.023936,1.664245,7.682265,-1.576587,0.6643713,0.003382829,-0.748038,2.120617,43.29723,2.139925
0.0349062,-0.01487393,1.520255,0.6898562,0.6471211,0.005132159,-0.765887,2.120098,43.3503,2.164005
0.0319509,1.171335,-0.42737,-1.063582,0.6611507,0.001698409,-0.7539725,2.157523,43.33664,2.130023
0.0299126,-0.9624182,0.2422165,-0.005045783,0.6480885,0.003785461,-0.7646587,2.128735,43.34388,2.129872
0.0298925,0.03613501,11.08484,-2.411369,0.6480408,0.004931176,-0.7717609,2.129815,43.67524,2.05779
0.0299486,3.030706,16.98306,-4.291198,0.6774778,0.008102318,-0.7327689,2.220581,44.18385,1.929274
0.0239059,0.8911268,1.039842,0.1169173,0.6797523,0.0002057841,-0.7370858,2.241884,44.20871,1.932069
0.0259305,-1.892893,-1.178563,2.878196,0.6540248,-0.00098415,-0.7593486,2.1928,44.17815,2.006702
0.0299205,2.418149,3.933768,-2.636379,0.6677021,0.003053435,-0.7513093,2.265152,44.29585,1.927821
0.0269578,2.981876,2.576648,-2.342059,0.6810698,0.004480381,-0.7364275,2.345537,44.36531,1.864684
0.024943,-1.350577,-3.047494,2.72446,0.6745247,0.004597666,-0.7401837,2.31185,44.2893,1.93264
0.0289156,-3.777599,-1.609282,3.313576,0.6417661,-0.0006368132,-0.7648888,2.202618,44.24276,2.028454
0.0209369,-0.6214883,3.115943,-2.338753,0.6663814,0.00636404,-0.7543669,2.189606,44.308,1.979488
0.0249303,1.336976,2.213656,-2.972444,0.6820889,0.007203242,-0.7412993,2.222938,44.36319,1.905384
0.0219169,-0.2229382,-1.538513,1.120338,0.6791843,0.005735089,-0.7428157,2.218051,44.32947,1.929938
0.0279243,-0.7393332,0.9287724,0.9208787,0.6507396,0.001208388,-0.7608444,2.197406,44.35541,1.955653
0.0269244,2.180768,13.91441,-5.707322,0.6692414,0.005186125,-0.7588756,2.256122,44.73005,1.801987
0.0249363,2.667216,15.96949,-5.802899,0.6954899,0.0127379,-0.7198921,2.322632,45.12827,1.657284
0.0249654,-0.9544169,-0.614777,1.102023,0.6894501,0.004252465,-0.73314,2.298805,45.11292,1.684796
0.0248986,-2.115036,-0.9464862,3.543484,0.6600186,0.003508272,-0.7515223,2.246144,45.08935,1.773024
0.0229747,0.2018066,2.616964,-0.5369188,0.670803,0.005399796,-0.73483,2.25078,45.14948,1.760689
0.0229032,-0.3126712,1.196743,-2.415095,0.6850611,0.005946874,-0.7339172,2.243619,45.17688,1.705375
0.0229476,-1.136358,-2.14694,-0.5751364,0.6855055,0.006730173,-0.741261,2.217542,45.12762,1.692177
0.025922,0.3131952,0.1284814,1.647472,0.6707566,0.00368235,-0.7520032,2.225661,45.13095,1.734883
0.0259687,2.546906,3.616417,-1.485507,0.6757866,0.007125459,-0.7338994,2.291801,45.22486,1.696306
0.0289209,0.78155,1.336227,-2.821014,0.6884131,0.008004631,-0.7289591,2.314404,45.26351,1.61472
0.025893,-2.063107,-1.55968,-0.08730906,0.6814902,0.006840027,-0.7421672,2.260984,45.22312,1.612459
0.0239389,-0.7747596,1.900193,0.5146197,0.6797387,0.008469712,-0.749777,2.242437,45.26861,1.624779
0.024968,2.042208,8.541821,-0.710771,0.6714247,0.01280141,-0.7275393,2.293427,45.48188,1.607032
0.0238995,1.157777,15.12271,-1.883135,0.6890047,0.01000367,-0.7170481,2.321097,45.84331,1.562026
0.0229392,-0.7474014,1.899852,0.3402986,0.6903937,0.002034823,-0.7294665,2.303952,45.88689,1.569832
0.0279276,-0.725728,0.5779939,-0.3440929,0.6730967,0.003266322,-0.7429069,2.283685,45.90303,1.560223
0.0279229,1.067576,1.036285,-2.501487,0.6983684,0.01034742,-0.7256347,2.313494,45.93197,1.490374
0.0219698,-0.1536924,-0.7030539,1.431073,0.6851901,0.005217413,-0.7342883,2.310118,45.91652,1.521814
0.0249335,-0.01044381,0.6475644,2.101705,0.6766198,0.006137889,-0.7316896,2.309858,45.93267,1.574217
0.0229386,0.004089362,1.502132,-0.4247652,0.6829045,0.006376727,-0.7265859,2.309951,45.96713,1.564474
0.0239059,-0.3953388,0.2754433,-1.857628,0.693636,0.009850998,-0.727657,2.3005,45.97371,1.520065
0.021968,-0.5464854,-1.001145,-0.3860755,0.6911398,0.00694169,-0.732488,2.288495,45.95172,1.511584
0.0219405,-0.3083741,1.276554,0.566064,0.6839618,0.008755496,-0.7347692,2.281729,45.97973,1.524004
0.0219416,0.2558373,8.718244,-0.9932978,0.6798025,0.00958579,-0.7339561,2.287343,46.17102,1.502209
0.0269554,0.9351157,8.831417,-2.06246,0.7050365,0.01456369,-0.7125313,2.312549,46.40908,1.446615
0.0239449,-0.4494114,0.03876578,1.140391,0.6984502,0.005428781,-0.7202743,2.301788,46.41,1.473921
0.0239355,-0.6878229,-0.01671934,0.267072,0.6843579,0.009558913,-0.7267913,2.285325,46.4096,1.480314
0.0229022,0.2604464,0.5800493,-2.083482,0.696776,0.01107034,-0.7252814,2.29129,46.42289,1.432597
0.024934,0.4999795,-1.082293,-0.3790718,0.7040449,0.0102173,-0.7205409,2.303756,46.3959,1.423146
0.0279244,-0.7965965,-2.697142,3.21849,0.6835766,0.002745827,-0.730893,2.281512,46.32058,1.51302
0.0239369,0.2898906,2.678197,0.1302009,0.6768004,0.006418669,-0.7370789,2.288451,46.38469,1.516137
0.0259387,1.739702,13.35165,-4.77171,0.6929063,0.009898191,-0.7168788,2.333577,46.73101,1.392365
0.0289235,-1.036366,18.08371,-3.978104,0.7228184,0.01443388,-0.6991999,2.303601,47.25406,1.277304
0.0239357,-1.823683,-0.1505308,2.987903,0.7051059,0.009833008,-0.7170984,2.25995,47.25045,1.348822
0.0239661,-0.3092138,-2.033641,1.917745,0.694408,0.007480395,-0.7194513,2.252539,47.20172,1.394783
0.0279286,-0.8403543,-4.402285,-0.4556497,0.709245,0.01185439,-0.7061247,2.229069,47.07877,1.382057
0.0219388,-2.672538,-6.637686,0.9671232,0.7064207,0.01104665,-0.7151128,2.170437,46.93314,1.403274
0.02294,-2.230905,-4.408129,0.9360584,0.6955754,0.01278957,-0.7276131,2.11926,46.83202,1.424747
0.0309189,-0.159298,-0.9293483,0.3913238,0.7030461,0.01191219,-0.7190704,2.114335,46.80328,1.436847
0.0298862,-0.1680812,-1.288054,1.48101,0.6965027,0.01227527,-0.72307,2.109312,46.76479,1.481109
0.034905,1.207859,-1.730681,0.7301217,0.6979461,0.00847608,-0.7198917,2.151472,46.70438,1.506593
0.0299222,0.5809969,-1.285364,-0.1116704,0.69463,0.009548599,-0.7182086,2.168857,46.66592,1.503252
0.030915,-0.2520607,-1.152842,-0.9191198,0.700039,0.01069995,-0.722425,2.161064,46.63028,1.474837
0.0259311,-0.1070599,-1.875518,0.192481,0.7036793,0.0108277,-0.7207863,2.158288,46.58165,1.479829
0.023935,-0.4392168,-2.259859,1.282305,0.6926275,0.009214935,-0.7244866,2.147775,46.52756,1.510521
0.0249352,-0.1624354,-1.224059,-0.1028315,0.690236,0.00923275,-0.7288059,2.143725,46.49704,1.507957
0.0219396,0.7072117,-0.6556711,-1.168397,0.6989191,0.01117106,-0.7205967,2.159241,46.48265,1.482322
0.0319469,-0.8479841,-1.160116,0.2015423,0.6987868,0.01238801,-0.7200996,2.132151,46.44559,1.488761
0.0259672,-1.87624,-1.968651,1.004438,0.6885076,0.0117822,-0.7278287,2.08343,46.39447,1.514843
0.02992,0.9226244,-2.312315,-0.6940332,0.6918432,0.01194521,-0.7317094,2.111035,46.32528,1.494078
0.0268933,1.36193,-1.366013,-0.2871169,0.6974324,0.01151764,-0.7186512,2.147662,46.28855,1.486356
0.0229644,0.03962734,-3.455143,0.4988093,0.6911772,0.009338681,-0.7257292,2.148572,46.2092,1.497811
0.0239352,0.9426864,-3.268768,0.2795723,0.6889505,0.008526279,-0.7336069,2.171135,46.13096,1.504503
0.0219523,2.814421,-3.104881,-0.219339,0.6932999,0.008888326,-0.7299967,2.232918,46.0628,1.499688
0.0239531,2.197154,-3.136634,0.4576311,0.6881057,0.004171579,-0.7218798,2.285547,45.98767,1.51065
0.0249323,-0.692786,-2.671553,0.3048765,0.6875086,0.005400291,-0.7234721,2.268274,45.92106,1.518251
0.0239692,-1.953151,-4.055974,0.3183766,0.6847608,0.009288893,-0.7410073,2.221459,45.82384,1.525882
0.0239379,0.6907832,-2.55945,-0.3841397,0.6857362,0.01137348,-0.7417164,2.237995,45.76258,1.516687
0.0239718,3.097578,-3.08221,-0.08144215,0.6913188,0.01020771,-0.7278054,2.312249,45.68869,1.514734
0.023937,1.447465,-3.875676,1.733612,0.6832989,0.007741713,-0.729636,2.346897,45.59592,1.556232
0.0229352,-0.01974436,-3.369352,0.7179973,0.6715698,0.006158489,-0.7382476,2.346445,45.51864,1.572699
0.0249356,0.4165074,-1.622232,-2.373547,0.6824878,0.008987378,-0.7339275,2.35683,45.47819,1.513513
0.0209075,-0.002174414,-1.125796,-2.131037,0.6909075,0.01012938,-0.7346752,2.356785,45.45465,1.468959
0.0259344,-0.3783984,-2.17205,1.742814,0.6840151,0.009032452,-0.7396697,2.346971,45.39832,1.514157
0.0259307,0.8733281,-3.208866,2.389931,0.6727281,0.003263049,-0.7426662,2.369617,45.31511,1.57613
0.0239268,1.752303,-2.958455,-0.4971859,0.6747426,0.003604094,-0.7374911,2.411544,45.24432,1.564234
0.0239104,1.236464,-2.270008,-1.829045,0.6805893,0.004360226,-0.737047,2.441109,45.19005,1.520501
0.0269271,-0.4275082,-1.03722,-0.5783429,0.6815528,0.005336281,-0.736293,2.429597,45.16212,1.504928
0.0249341,-0.8360793,-3.072208,0.5336333,0.6773618,0.005731023,-0.7434508,2.40875,45.08551,1.518233
0.0259295,0.2106353,-3.798352,0.1163882,0.6756474,0.006453408,-0.743099,2.414212,44.98703,1.521251
0.0229401,0.3486682,-1.776816,-0.2547219,0.6756564,0.00829441,-0.7445571,2.42221,44.94627,1.515408
0.0268953,0.3834849,-1.619489,0.05530675,0.6746582,0.008154036,-0.7424864,2.432524,44.90271,1.516895
0.025959,0.4845868,-3.545934,-0.08705399,0.6730704,0.007411216,-0.7420206,2.445104,44.81066,1.514635
0.0269272,0.6365774,-3.139914,-0.6578302,0.6703352,0.01037776,-0.749388,2.462245,44.72611,1.496922
0.0259623,1.180138,-0.8614541,-0.8629231,0.678626,0.0110748,-0.7383729,2.492884,44.70375,1.474518
0.0249023,-0.7944688,-1.721853,0.9940583,0.6714631,0.008125124,-0.7403191,2.4731,44.66087,1.499273
0.0229639,-0.8705496,-2.045177,0.4404322,0.6668533,0.007947483,-0.7534922,2.453109,44.6139,1.509387
0.0229498,0.9210337,-1.089496,-0.37569,0.6712052,0.005985959,-0.7492852,2.474247,44.5889,1.500765
0.0239314,1.941992,-1.725408,-0.1423956,0.6745761,0.002303615,-0.7439988,2.520721,44.54761,1.497357
0.0299008,1.29495,-2.887109,1.090719,0.6703377,-0.0003896588,-0.745785,2.559441,44.46128,1.52997
0.0289517,0.4640413,-0.9452505,0.6498777,0.664369,-0.002125417,-0.7458696,2.572876,44.43391,1.548785
0.0229314,-0.7185391,-0.5414299,-0.3844006,0.6704822,0.001460086,-0.7484671,2.556399,44.4215,1.539971
0.0249375,-0.9005257,-1.292931,-0.2412601,0.6700473,0.004549207,-0.7543349,2.533942,44.38926,1.533954
0.0238937,0.8866892,-1.006106,0.05924494,0.6649151,0.005376788,-0.7537787,2.555129,44.36522,1.53537
0.0229722,1.806972,-0.194674,-0.6772689,0.6696821,0.006922426,-0.7442716,2.596639,44.36074,1.519812
0.0239015,-0.1107409,-1.130002,-0.2707024,0.6674474,0.007622952,-0.7409843,2.593992,44.33374,1.513341
0.021975,-2.289315,-1.543618,-0.2429738,0.6673093,0.01245833,-0.7522298,2.543684,44.29982,1.508002
0.0288912,-1.315485,-0.05141096,-0.6379596,0.6683229,0.01113951,-0.7551684,2.505678,44.29833,1.48957
0.0269008,0.4336837,0.05234367,0.1221607,0.6735038,0.008555007,-0.748504,2.517345,44.29974,1.492857
0.0229849,-0.3835247,-0.7747777,1.746328,0.6605923,0.002999722,-0.7480866,2.508529,44.28193,1.532996
0.0308823,-1.091317,-0.3865391,-1.671866,0.6561432,-0.0001640907,-0.752698,2.474827,44.27,1.481365
0.0299619,-0.9838791,-0.9747944,-3.250302,0.6766593,0.004888796,-0.7457942,2.445348,44.24079,1.38398
0.0299283,-1.783962,-1.917827,1.015242,0.6601207,0.004181801,-0.7609548,2.391957,44.1834,1.414364
0.025938,0.8979154,-1.052819,-0.03507641,0.6617913,0.007226598,-0.758707,2.415247,44.15609,1.413454
0.0268905,0.9212865,-0.1055229,-0.3683608,0.6713276,0.008116379,-0.739095,2.440021,44.15325,1.403549
0.0259632,-3.093719,-0.9430795,0.5083623,0.6590098,0.01107108,-0.7512372,2.359699,44.12876,1.416748
0.0298887,-2.286037,-1.512725,-1.260601,0.6610776,0.01494373,-0.7630753,2.291372,44.08355,1.37907
0.0269268,1.27842,-1.181928,-2.308002,0.6698584,0.0130744,-0.7513365,2.325796,44.05172,1.316923
