DT,Velocity X,Velocity Y,Velocity Z,Acceleration X,Acceleration Y,Acceleration Z,Angle X,Angle Y,Angle Z
0.0359063,-0.1049892,0.09784742,0.85504,-0.04039146,0.02509028,-1.006157,0.03336011,-0.00572397,-0.03527678
0.0329044,1.004582,-0.358475,-1.104259,-0.03789366,0.0272663,-1.001209,0.06641528,-0.01751937,-0.07161177
0.0289488,0.1068605,0.06172772,-0.4897185,-0.03153229,0.02436967,-1.001887,0.06950876,-0.01573243,-0.08578853
0.0318924,-0.3912874,0.1711971,0.7128202,-0.03967381,0.02080197,-1.003359,0.05702967,-0.01027254,-0.06305499
0.0329124,0.251169,0.3230091,-0.5812869,-0.03287447,0.02521987,-1.002142,0.06529625,0.0003584623,-0.08218654
0.0319122,0.2755312,0.126128,0.09403563,-0.03823596,0.0258104,-1.002816,0.07408906,0.004383484,-0.07918565
0.0279686,0.1489969,0.1840293,-0.2594702,-0.03486973,0.03142563,-1.000408,0.07825629,0.009530527,-0.08644266
0.0279285,-0.6728659,0.5270753,0.4850555,-0.03689242,0.03071261,-1.004727,0.05946416,0.02425095,-0.0728958
0.0278918,-0.1987405,0.2865874,0.2720405,-0.03847917,0.02935858,-1.004143,0.05392093,0.03224439,-0.06530809
0.0239365,0.1214753,-0.04647763,-0.4698298,-0.03667632,0.02984029,-1.001912,0.05682862,0.03113188,-0.07655418
0.032912,-0.3176689,0.5818282,0.06049269,-0.03385172,0.02900811,-1.003354,0.04637351,0.05028101,-0.07456324
0.0329361,-0.06350298,0.3290032,0.3542852,-0.03542763,0.02631451,-1.003269,0.04428196,0.06111709,-0.06289447
0.0378729,0.06370743,0.4004968,0.3102823,-0.03689734,0.0261818,-1.002675,0.04669475,0.07628506,-0.05114318
0.0309564,-0.3135853,0.6988693,-0.1673118,-0.03628181,0.02508665,-1.002798,0.03698727,0.09791954,-0.05632256
0.0298997,-0.3357834,0.6915912,0.02169384,-0.03236523,0.02902858,-1.005419,0.02694745,0.1185979,-0.05567392
0.0289232,0.5155362,0.7143038,0.5072108,-0.03496005,0.02728347,-1.001786,0.04185841,0.1392579,-0.04100376
0.0348806,-0.1072694,0.8412982,-0.7053567,-0.03495803,0.02948742,-1.002751,0.03811679,0.1686029,-0.06560702
0.0269529,-0.3260546,1.129311,-0.493864,-0.02996695,0.02901487,-1.001713,0.02932867,0.1990411,-0.07891808
0.0239405,-0.4199712,1.08566,0.4213812,-0.03373485,0.02790422,-1.002502,0.01927435,0.2250323,-0.06883001
0.0269315,-0.4331869,1.080381,0.1455001,-0.0340639,0.0289038,-1.006177,0.007607978,0.2541286,-0.06491147
0.0239034,0.300993,1.304074,-0.2694288,-0.03031157,0.02914843,-1.003677,0.01480273,0.2853004,-0.07135174
0.0249333,0.2611056,1.372338,-0.03578184,-0.02973481,0.02754037,-1.000127,0.02131296,0.3195173,-0.0722439
0.0249673,-0.3953098,1.182049,-0.08228614,-0.03162777,0.02658784,-1.00506,0.01144314,0.3490299,-0.07429836
0.0229029,0.04758092,1.390566,-0.183587,-0.02859675,0.02830397,-1.00403,0.01253288,0.3808779,-0.07850304
0.0279613,0.5722336,1.254773,0.2087191,-0.03018301,0.02682787,-1.003447,0.02853327,0.415963,-0.07266698
0.0258954,0.3976752,0.9523521,-0.2749145,-0.02982853,0.02559888,-1.00198,0.03883123,0.4406245,-0.079786
0.0259643,-0.2524399,1.484236,-0.4982448,-0.02607071,0.02853906,-1.000933,0.03227681,0.4791617,-0.09272258
0.0258952,-0.6404108,2.064413,0.2938378,-0.02786036,0.02782057,-1.00427,0.01569324,0.5326201,-0.08511359
0.0279263,-0.1940445,1.029357,0.3465813,-0.02872029,0.02903671,-1.004149,0.0102743,0.5613662,-0.07543486
0.0239703,-0.008150158,1.623238,0.07266353,-0.0224308,0.03013501,-0.9997749,0.01007894,0.6002757,-0.0736931
0.0229289,-0.2504324,3.08189,0.3962691,-0.0275052,0.03014085,-1.004127,0.004336797,0.67094,-0.06460708
0.0269022,-0.2131063,1.980848,-0.031166,-0.02592678,0.02916475,-1.003134,-0.001396232,0.7242292,-0.06544552
0.0259651,-0.3873652,1.146305,-0.5294431,-0.01659679,0.03063879,-0.998107,-0.01145421,0.7539932,-0.07919256
0.025929,-1.341782,2.327921,1.172558,-0.02565684,0.02844732,-1.005219,-0.04624528,0.8143538,-0.0487893
0.0219503,-0.9441066,2.444692,0.9436842,-0.0246546,0.02724402,-1.007177,-0.0669687,0.8680155,-0.02807514
0.0239332,-0.1327331,1.585472,-0.1339698,-0.02077998,0.02638803,-1.004316,-0.07014543,0.905961,-0.03128147
0.0248995,-0.1735348,2.251031,0.3414646,-0.01641281,0.02773982,-1.00266,-0.07446636,0.9620105,-0.02277917
0.0229743,-0.6234113,2.415371,1.177512,-0.02029587,0.02663272,-1.004063,-0.0887888,1.017502,0.004273348
0.024932,-0.4473952,1.278784,1.037125,-0.01945019,0.02895683,-1.00416,-0.09994326,1.049385,0.03013094
0.0229411,-0.4416977,1.308752,0.6450874,-0.0186291,0.03028709,-1.001689,-0.1100763,1.079409,0.04492996
0.0259299,-0.5775723,1.779493,0.2330397,-0.01847415,0.03189842,-1.005231,-0.1250527,1.125551,0.05097265
0.0279264,0.1894906,1.186946,-0.09704241,-0.0163779,0.03192161,-1.007289,-0.1197609,1.158698,0.04826261
0.0229373,0.737989,1.223824,-0.216603,-0.01426326,0.03298419,-1.000391,-0.1028334,1.186769,0.04329432
0.0239702,-0.001565564,1.802216,0.2121015,-0.01425251,0.0333578,-1.001492,-0.1028709,1.229969,0.04837843
0.0298855,-0.2435736,1.821812,0.1943412,-0.01455867,0.03069998,-1.005927,-0.1101503,1.284414,0.05418642
0.0239359,0.5362894,1.764925,-0.2831046,-0.01323686,0.02983749,-1.003833,-0.09731369,1.326659,0.04741006
0.0259668,0.6814718,3.147795,-0.3304934,-0.009835823,0.02984453,-1.002566,-0.07961805,1.408398,0.0388282
0.0289248,-0.1331743,2.601319,0.1820332,-0.01081669,0.02641052,-1.000885,-0.08347009,1.48364,0.04409347
0.0359026,-0.9514634,1.734718,0.3135952,-0.01169533,0.02903458,-1.010561,-0.1176301,1.545921,0.05535236
0.0289593,0.955875,8.216351,-0.6078968,-0.007859074,0.02925679,-1.004629,-0.08994863,1.783861,0.03774809
0.0239344,0.6869867,9.400656,-1.66074,-0.002717094,0.03227801,-0.9964557,-0.07350601,2.00886,-0.002000723
0.0249673,-0.1273514,3.799168,-0.679102,0.005011158,0.03490955,-1.001369,-0.07668564,2.103715,-0.01895607
0.0239387,-0.3521387,1.029687,0.9291436,0.001276507,0.03027014,-1.003898,-0.08511538,2.128364,0.003286423
0.0219771,-0.1480295,1.078903,0.9032789,-0.002370428,0.02940419,-1.004684,-0.08836864,2.152076,0.02313787
0.0259299,1.134861,5.492046,-0.8883125,-0.002411103,0.03153308,-1.01276,-0.05894181,2.294484,0.0001040213
0.0258966,1.604515,10.08328,-2.344894,0.01006489,0.02718167,-0.9924129,-0.01739032,2.555606,-0.06062077
0.0309561,-1.04203,5.704351,-0.6035441,0.01556859,0.02643226,-1.004486,-0.0496475,2.732191,-0.07930414
0.0278874,-1.728888,7.047656,0.514291,0.01153573,0.02697177,-1.014951,-0.09786169,2.928732,-0.0649619
0.0279621,1.300399,7.967265,-1.573057,0.01140707,0.02525394,-1.013738,-0.06149979,3.151513,-0.1089479
0.0258966,2.106088,9.870988,-3.13946,0.02774546,0.0301962,-0.9930348,-0.006959267,3.407138,-0.1902492
0.0259668,-0.08048362,5.040016,-0.4729884,0.03120393,0.03182879,-0.9975169,-0.00904917,3.538011,-0.2025312
0.023936,-0.6332086,2.647661,1.495344,0.02221113,0.02882131,-1.010395,-0.02420565,3.601386,-0.1667387
0.0259411,1.372257,4.517485,0.2531879,0.02814488,0.02943459,-1.006764,0.0113922,3.718574,-0.1601707
0.0258936,1.960424,5.622126,-0.4181548,0.03152416,0.02808238,-1.003055,0.06215463,3.864151,-0.1709982
0.0359054,1.158789,4.963123,0.0234813,0.03590701,0.02418156,-1.000944,0.1037614,4.042354,-0.1701551
0.0309084,1.217867,6.765766,0.09251129,0.03688117,0.02589827,-1.001411,0.1414037,4.251473,-0.1672958
0.0319227,0.9927931,3.451112,0.6307807,0.03981631,0.02248989,-1.000908,0.1730964,4.361642,-0.1471595
0.0269309,1.540035,10.51048,-0.8707296,0.04069886,0.02221713,-1.014383,0.2145709,4.644699,-0.1706091
0.0248968,1.605067,16.97614,-2.577459,0.05397831,0.03068848,-0.9940605,0.2545319,5.06735,-0.2347796
0.0259452,-0.1089901,10.86073,-1.080298,0.05728547,0.02777496,-0.9942854,0.2517042,5.349134,-0.2628081
0.0259289,-1.230023,3.351554,0.408376,0.06539335,0.0283361,-0.9996988,0.219811,5.436036,-0.2522194
0.0259322,-1.040719,1.133323,1.921402,0.06212556,0.02498305,-1.011774,0.1928229,5.465425,-0.2023932
0.0269615,0.8381566,6.297343,1.693762,0.06057293,0.02022316,-1.013052,0.2154209,5.635211,-0.1567268
0.0259305,1.345197,9.10938,0.2115891,0.06924963,0.02392019,-0.9939212,0.2503025,5.871422,-0.1512402
0.0229398,-0.4333499,5.209989,0.9145623,0.0764038,0.02160249,-0.9893148,0.2403615,5.990938,-0.1302603
0.0239269,-2.058457,2.229689,2.949171,0.06578514,0.01729046,-1.009086,0.1911091,6.044288,-0.05969582
0.0229121,-0.2671959,6.77176,1.932628,0.06434832,0.01859682,-1.022946,0.184987,6.199443,-0.01541525
0.0249596,2.252284,15.9273,-1.062885,0.07685468,0.02618331,-0.9985936,0.2412031,6.596982,-0.04194444
0.0229481,0.9389193,16.27295,-0.8107853,0.08809295,0.0231123,-0.9880589,0.2627496,6.970415,-0.06055042
0.0279527,-2.396313,12.0732,0.3217694,0.09080126,0.02730033,-0.9917969,0.1957662,7.307894,-0.0515561
0.0249064,-3.824307,9.45927,1.338848,0.1009261,0.03182585,-1.004513,0.1005164,7.54349,-0.01821021
0.0229376,-1.252065,10.60451,1.923852,0.09424897,0.02613563,-1.016279,0.07179706,7.786732,0.02591835
0.0229373,1.420514,17.4563,-0.3930918,0.1072095,0.02631229,-0.9972425,0.1043798,8.187132,0.01690188
0.020944,1.303147,18.30089,-1.399497,0.1186071,0.03175744,-0.9821118,0.1316729,8.570426,-0.01240919
0.0248995,-1.664387,9.995592,0.9362009,0.1245163,0.02471948,-0.98454,0.09023051,8.819311,0.01090175
0.0289226,-2.813861,2.145769,3.230127,0.1194799,0.02151725,-1.002152,0.008846335,8.881372,0.1043254
0.0219413,-0.489114,1.692677,2.423068,0.119025,0.02483904,-1.006302,-0.001885463,8.918512,0.1574907
0.0279588,1.086929,10.06176,0.873246,0.1251935,0.02569265,-1.001931,0.02850377,9.199827,0.1819056
0.0268939,0.4517241,10.79298,0.4952766,0.1340661,0.02948414,-0.9785071,0.04065239,9.490092,0.1952255
0.0239703,-1.742649,3.897688,1.409497,0.1334984,0.0284293,-1.003895,-0.00111942,9.583521,0.2290116
0.0239354,-1.637962,7.287378,1.483111,0.1302909,0.02552903,-1.010573,-0.04032468,9.757947,0.2645104
0.0239015,0.246205,17.79498,-0.7465057,0.132716,0.02357356,-1.008596,-0.03444001,10.18327,0.2466678
0.0259588,-0.03484185,22.78977,-2.791904,0.1533665,0.0444461,-0.9754723,-0.03534447,10.77487,0.1741933
0.0229449,-2.683516,19.31305,-1.711487,0.1648409,0.03478711,-0.9838571,-0.09691748,11.218,0.1349234
0.0239265,-3.189642,15.56583,1.206779,0.1674582,0.02499336,-0.9963956,-0.1732344,11.59044,0.1637974
0.0279164,-1.366407,13.59048,1.999068,0.1727481,0.01966012,-0.9985745,-0.2113796,11.96984,0.2196042
0.024952,1.394036,15.36889,-0.2562647,0.1776092,0.02779767,-0.9888981,-0.1765956,12.35332,0.2132099
0.0259312,0.1478098,14.41074,-2.242122,0.1851819,0.03532876,-0.9595805,-0.1727627,12.72701,0.155069
0.0248985,-3.788013,9.19197,0.4128878,0.1942885,0.03042521,-0.9870834,-0.2670786,12.95588,0.1653493
0.022973,-2.744924,4.218316,2.541868,0.1949576,0.03021903,-0.9923475,-0.3301377,13.05278,0.2237436
0.0239,1.280555,3.819457,2.97819,0.1911051,0.02504276,-1.006036,-0.2995325,13.14407,0.2949224
0.0229738,5.175597,12.67604,1.218355,0.1944012,0.03237817,-0.986946,-0.1806293,13.43529,0.3229126
0.0248984,3.88722,18.93587,-1.216495,0.1932822,0.04555288,-0.9677467,-0.08384379,13.90676,0.2926238
0.025968,-0.9187365,19.80238,-2.471456,0.2190987,0.0320131,-0.9702225,-0.1077015,14.42099,0.2284451
0.0269275,-3.068835,12.08315,0.7624887,0.2288661,0.02834304,-0.9807931,-0.1903376,14.74636,0.248977
0.0269147,-0.8663205,8.026624,3.073315,0.2261274,0.02354856,-0.9960592,-0.2136544,14.96239,0.3316944
0.0279599,2.639549,12.17535,1.807144,0.2275094,0.04200989,-0.9623287,-0.1398528,15.30281,0.3822219
0.0248986,-0.1313756,11.44611,0.1495699,0.2306187,0.04002898,-0.9560532,-0.1431239,15.5878,0.385946
0.0259302,-3.897231,6.387118,-0.603177,0.2404018,0.01394845,-0.9930097,-0.2441799,15.75342,0.3703055
0.023964,-1.128236,8.655554,-0.7084484,0.2438865,0.02347808,-0.9916758,-0.2712169,15.96084,0.3533283
0.0229408,2.458076,11.89316,-1.588834,0.2477985,0.03436875,-0.9743922,-0.2148267,16.23368,0.3168792
0.0249318,2.872556,6.708156,-0.7883662,0.2525417,0.0313721,-0.9611168,-0.1432087,16.40093,0.2972238
0.0299216,0.1165431,0.7495337,0.671236,0.2510328,0.02859661,-0.9670381,-0.1397216,16.42335,0.3173082
0.0259318,-0.9555737,3.376379,0.1170924,0.2475454,0.03137586,-0.9834867,-0.1645013,16.51091,0.3203447
0.0259271,0.1567269,13.43317,-2.080446,0.2570985,0.03124759,-0.9760166,-0.1604378,16.85919,0.2664047
0.0239675,1.157126,10.73936,-1.280131,0.2692187,0.03118366,-0.9580958,-0.1327044,17.11659,0.2357232
0.022939,-0.06478491,3.140247,1.171364,0.2674641,0.0312206,-0.9648587,-0.1341905,17.18862,0.2625931
0.0328851,1.56155,8.774401,0.6215383,0.2557462,0.0213466,-0.9935074,-0.0828388,17.47717,0.2830324
0.0289246,4.435212,17.78982,-3.242326,0.2765516,0.02657574,-0.9577932,0.04544792,17.99173,0.1892495
0.0339093,1.964666,8.459163,-0.5655684,0.2882716,0.02974433,-0.9489257,0.1120684,18.27858,0.1700714
0.0279248,-0.6308118,1.274363,2.406164,0.2832397,0.02238408,-0.9654631,0.0944531,18.31416,0.2372631
0.025956,1.172161,1.463015,1.834685,0.2789171,0.02619891,-0.9729666,0.1248777,18.35213,0.2848842
0.0239455,4.085492,6.221152,-0.1860067,0.2775634,0.02753167,-0.972361,0.2227069,18.5011,0.2804301
0.0299197,4.274222,7.831791,-1.405216,0.2959889,0.02392546,-0.9498525,0.3505903,18.73543,0.2383865
0.0249325,0.5402668,2.400876,1.494766,0.2997625,0.01855371,-0.9472696,0.3640605,18.79529,0.2756547
0.0248984,-2.860904,1.608629,3.589587,0.2884257,0.0178447,-0.958567,0.2928286,18.83534,0.3650297
0.0289226,-0.973151,12.86269,1.002985,0.2789399,0.02371592,-0.9851186,0.2646825,19.20736,0.3940386
0.0298896,2.370592,17.24337,-3.336195,0.3085786,0.02057238,-0.9510708,0.3355386,19.72276,0.2943211
0.0269668,2.184788,4.8439,-0.7130977,0.3210828,0.01949285,-0.94541,0.3944553,19.85339,0.2750911
0.0269299,1.136282,0.4397987,2.437096,0.3032668,0.01502499,-0.9650249,0.4250553,19.86523,0.3407219
0.0278886,3.84236,4.724352,0.08746646,0.3032496,0.01795157,-0.9645147,0.5322133,19.99699,0.3431612
0.0249684,3.698236,11.38533,-1.735429,0.3165432,0.02324973,-0.9443362,0.6245524,20.28126,0.2998303
0.0258952,0.2473792,10.08471,-0.7271294,0.3276371,0.02011541,-0.9427518,0.6309583,20.54241,0.2810012
0.0259307,-1.198363,3.949473,1.626257,0.3270377,0.01701029,-0.9535673,0.5998839,20.64482,0.3231711
0.0239728,0.7912598,2.891573,2.797727,0.3199071,0.01346827,-0.9582139,0.6188526,20.71414,0.3902405
0.0268949,2.304455,12.12254,0.1379236,0.3158655,0.01637689,-0.9577527,0.6808307,21.04017,0.3939499
0.0239699,1.465597,16.16566,-2.894816,0.338479,0.0178809,-0.9297647,0.7159609,21.42766,0.3245615
0.0249325,-2.692386,7.533672,-0.2198165,0.3466183,0.01197521,-0.9357126,0.648833,21.6155,0.3190809
0.0219061,-3.023102,0.5476995,2.009475,0.3355099,0.01084158,-0.9564486,0.5826087,21.62749,0.3631006
0.0219458,0.9987307,-0.7159083,1.37092,0.338421,0.01206886,-0.9554241,0.6045266,21.61178,0.3931866
0.0209458,3.356149,0.3101766,0.8652131,0.3330963,0.0191436,-0.9397502,0.6748239,21.61828,0.4113092
0.0249341,1.026659,0.8562591,-0.2404586,0.340137,0.01707526,-0.9360014,0.7004227,21.63963,0.4053135
0.0289218,-2.135933,0.4466952,0.7721108,0.3400584,0.01423697,-0.9498732,0.6386477,21.65255,0.4276443
0.0289584,-0.6242701,1.274671,1.530994,0.3394711,0.01608345,-0.9525643,0.6205698,21.68946,0.4719795
0.0229368,1.042017,6.815791,1.731739,0.3359918,0.01096256,-0.9559516,0.6444704,21.84579,0.5117
0.025897,1.034959,13.89555,0.419796,0.3466824,0.03095806,-0.9262649,0.6712727,22.20565,0.5225715
0.02397,-2.510847,11.01099,0.1775236,0.3558049,0.02114533,-0.9314924,0.6110877,22.46958,0.5268267
0.0239361,-3.141459,2.932548,1.734616,0.3566523,0.006729079,-0.9477618,0.5358934,22.53977,0.5683467
0.0209443,1.158645,1.812573,1.789467,0.3598413,-0.003256619,-0.967772,0.5601604,22.57774,0.6058258
0.023936,5.120185,16.65523,0.6286295,0.3482038,0.006132251,-0.9555911,0.6827171,22.9764,0.6208727
0.0239357,4.725672,34.89883,-4.141731,0.3636465,0.02631824,-0.9145682,0.7958294,23.81172,0.5217375
0.0268961,-1.628912,30.15651,-5.105638,0.3870219,0.02566487,-0.9104882,0.752018,24.62282,0.3844157
0.0229702,-4.203613,18.03882,-2.952039,0.4043241,0.01026484,-0.9144289,0.6554602,25.03717,0.3166068
0.0229416,-1.971125,3.129876,1.010696,0.3978654,0.005979523,-0.9353753,0.6102395,25.10898,0.3397938
0.0249322,2.365457,0.3592799,1.641573,0.3935322,0.01282349,-0.9210393,0.6692156,25.11793,0.3807218
0.0209496,1.508347,1.610705,0.913899,0.3942825,0.02194292,-0.9149609,0.7008148,25.15168,0.3998676
0.0239077,-1.25667,4.658495,0.500322,0.3953705,0.018344,-0.9237981,0.6707708,25.26305,0.4118292
0.0219838,-1.666455,8.266219,0.7035827,0.4052997,0.01413588,-0.9267707,0.6341357,25.44477,0.4272966
0.0259159,-0.395079,7.234776,1.949863,0.4039439,0.01992209,-0.9165733,0.6238969,25.63227,0.4778291
0.0269009,0.1767782,5.66063,1.737817,0.4014233,0.01834415,-0.9196793,0.6286524,25.78455,0.5245779
0.0229391,1.292687,3.052423,0.4984441,0.409793,0.01260307,-0.9134882,0.6583055,25.85457,0.5360118
0.0259319,1.058229,1.138535,1.066179,0.4086907,0.005815412,-0.9216386,0.6857473,25.88409,0.5636598
0.0239367,2.722039,6.549262,0.189712,0.4030752,0.01210106,-0.9344116,0.750904,26.04086,0.5682009
0.0299187,4.511564,19.42062,-2.850311,0.4216377,0.01631262,-0.8940738,0.8858841,26.6219,0.4829233
0.0259589,0.3119115,12.57776,-1.224419,0.4313868,0.01133459,-0.891538,0.893981,26.9484,0.4511387
0.0229085,-2.768466,3.82531,1.841852,0.4348361,0.009608325,-0.9049913,0.8305596,27.03603,0.4933328
0.0259306,-1.221869,0.1565288,3.169452,0.4251735,0.004432167,-0.9226732,0.7988757,27.04009,0.5755186
0.0329486,3.687253,7.242936,1.513371,0.4227924,0.01715932,-0.9104792,0.9203656,27.27874,0.6253821
0.0268915,1.969962,12.81866,0.5612867,0.4326017,0.02027055,-0.8942808,0.9733408,27.62345,0.6404759
0.0329157,-2.386998,3.048167,2.977067,0.4411469,-0.002913292,-0.9086782,0.8947711,27.72378,0.7384682
0.0368981,2.313,5.41282,2.898479,0.4306394,-0.001479755,-0.9295118,0.9801164,27.9235,0.8454165
0.0318739,5.709282,23.02481,-3.136994,0.4348054,0.0144116,-0.892946,1.162093,28.65739,0.7454283
0.0259592,-1.59862,22.73228,-5.237122,0.4701383,0.01195597,-0.8666691,1.120595,29.24751,0.6094768
0.0309227,-5.937112,3.989572,2.76053,0.4780544,0.001190539,-0.8947172,0.937003,29.37087,0.6948398
0.0309085,-2.554874,-2.628752,6.682294,0.4605149,-0.008469365,-0.9044358,0.8580356,29.28962,0.9013795
0.0259386,0.6744583,0.5040317,3.997685,0.44306,0.02242919,-0.881268,0.8755301,29.3027,1.005074
0.0219078,-1.697029,1.428295,-1.200997,0.4614863,0.01958153,-0.8810633,0.838352,29.33399,0.9787627
0.0239265,-3.483525,0.8380116,-1.121893,0.4721265,0.004863911,-0.9004025,0.7550034,29.35404,0.9519197
0.0229161,-0.5221274,0.9825532,1.197079,0.4643468,-0.004994962,-0.9102489,0.7430383,29.37655,0.9793521
0.0239347,4.915323,8.047122,0.5039973,0.4552348,0.003233223,-0.9053999,0.8606851,29.56916,0.9914151
0.0239751,4.787901,19.24652,-2.765237,0.4741633,0.026219,-0.8607605,0.9754755,30.0306,0.9251183
0.0298814,-2.946579,9.362117,-1.22687,0.486417,0.007781079,-0.8702996,0.8874276,30.31035,0.8884577
0.0269277,-4.634343,-0.1605344,1.120793,0.483474,-0.008787663,-0.8959458,0.7626355,30.30603,0.9186381
0.0249342,2.307169,1.727667,1.923818,0.4802806,-0.0028192,-0.8960661,0.8201629,30.3491,0.966607
0.0249452,4.127735,9.595169,0.6756999,0.4766625,0.01716128,-0.8739083,0.92313,30.58846,0.9834625
0.0269422,0.0226645,15.83819,-1.39954,0.4863743,0.02028672,-0.8599173,0.9237407,31.01517,0.9457558
0.0239111,-3.579155,7.868126,-0.1935998,0.5015175,0.007541663,-0.8790656,0.8381591,31.20331,0.9411266
0.021917,-1.517851,0.6510388,2.357063,0.4964194,0.0003862092,-0.8897186,0.8048924,31.21758,0.9927863
0.0229132,3.029354,1.16414,2.860205,0.48853,-0.003003763,-0.8810125,0.8743047,31.24425,1.058323
0.0259647,3.635715,7.818547,1.797023,0.4982293,0.00831317,-0.8688038,0.9687049,31.44726,1.104982
0.026893,-0.6175187,12.4156,2.141364,0.5084627,0.01542643,-0.8482823,0.952098,31.78115,1.16257
0.0219769,-4.405517,4.623801,4.27647,0.5049354,0.007608183,-0.8683593,0.8552784,31.88277,1.256553
0.0239017,-2.194323,1.641211,4.370496,0.49442,-0.01255013,-0.8917934,0.8028303,31.922,1.361015
0.0229744,3.617857,8.868564,0.7214836,0.4960904,0.005155598,-0.8727741,0.8859484,32.12574,1.377591
0.0239042,3.617583,18.0818,-2.128323,0.5154463,0.01449805,-0.8507778,0.9724239,32.55798,1.326715
0.023935,0.2985069,13.85183,-0.6655594,0.5285627,0.005713143,-0.8425887,0.9795686,32.88952,1.310785
0.0209422,-3.049932,3.954691,2.191966,0.5178716,-0.009216067,-0.8630471,0.9156963,32.97234,1.35669
0.0249334,-0.9503255,1.770384,1.868758,0.5098999,-0.01439444,-0.8792375,0.8920015,33.01648,1.403284
0.0239358,5.067178,14.95633,-2.450819,0.5269454,0.006811982,-0.8620905,1.013288,33.37447,1.344622
0.0258971,4.035039,24.09627,-2.218884,0.5439519,0.0101775,-0.8241065,1.117784,33.99849,1.287159
0.0239377,-1.564445,10.90924,2.384406,0.5401505,0.007039369,-0.8321419,1.080335,34.25964,1.344236
0.0279257,-3.504849,-1.3339,0.9149677,0.5168614,-0.0004796656,-0.8740311,0.9824597,34.22239,1.369787
0.0259667,4.047497,1.698149,-6.099476,0.5179442,0.01038373,-0.8545757,1.08756,34.26648,1.211404
0.0219054,4.144625,7.665726,-11.93402,0.5705486,0.0004639281,-0.8323076,1.178349,34.4344,0.9499847
0.0239318,-0.7719604,6.520286,-5.486177,0.5656483,-0.006718318,-0.8387908,1.159875,34.59044,0.8186905
0.0219115,-1.260413,-0.3271705,1.234963,0.5446097,-0.001686492,-0.8571537,1.132258,34.58327,0.8457505
0.0269283,5.314673,-0.9186528,0.3057924,0.540315,0.007750621,-0.847212,1.275373,34.55854,0.8539849
0.0279231,5.244968,-0.3419627,-2.384225,0.5408876,-5.179737E-05,-0.8300982,1.421829,34.54899,0.78741
0.0269578,-0.1089915,-0.09899174,-3.218958,0.5470281,-0.004281711,-0.8323815,1.41889,34.54632,0.7006339
0.0239364,-3.34454,1.188234,-1.298332,0.5561097,-0.005479863,-0.8479691,1.338834,34.57476,0.6695566
0.0239079,-1.852957,0.3891622,2.307502,0.5503929,0.00196834,-0.8520323,1.294534,34.58406,0.7247241
0.0229767,0.5658596,-0.3077135,4.849154,0.5498541,0.00585132,-0.8488251,1.307535,34.577,0.8361416
0.0219285,2.109798,0.569468,4.855451,0.5299796,-0.001210582,-0.8469094,1.3538,34.58949,0.9426143
0.0239494,2.366086,1.715712,0.6388724,0.5321409,0.002009748,-0.8339903,1.410467,34.63058,0.9579149
0.0268912,-0.5693712,0.8146832,-2.876582,0.5510582,-0.006879476,-0.8428921,1.395155,34.65248,0.8805602
0.0259312,-1.006486,0.025414,-0.3009905,0.5529901,0.0009495718,-0.8439177,1.369056,34.65314,0.8727552
0.0229717,-0.4155094,1.592647,1.907328,0.5437291,0.008254991,-0.8472896,1.359511,34.68973,0.9165697
0.0239298,0.8803993,1.867289,1.020815,0.5433461,0.005061304,-0.8446196,1.380579,34.73442,0.9409976
0.0219425,0.6865894,0.4976368,0.57921,0.5454751,-0.0004756851,-0.8366644,1.395644,34.74533,0.9537069
0.0239346,-0.9568697,0.4140741,0.5576612,0.5495889,-0.002728813,-0.8438619,1.372742,34.75525,0.9670543
0.0229399,-0.09347399,2.511106,1.601124,0.5503857,-0.009955616,-0.858121,1.370598,34.81285,1.003784
0.0248998,1.665702,11.18699,2.173477,0.5458105,0.004035433,-0.835526,1.412073,35.0914,1.057903
0.0329379,-0.6043744,4.52367,1.047057,0.5525338,0.008407403,-0.8274464,1.392166,35.24041,1.092391
0.0358776,-1.826467,-0.8272038,1.032018,0.5568654,-0.01990224,-0.844995,1.326637,35.21073,1.129417
0.0329496,1.512734,5.493901,1.644257,0.5578681,-0.01699388,-0.8594268,1.376481,35.39175,1.183595
0.028949,3.4054,29.51913,-0.4870351,0.5597132,0.009286679,-0.8262498,1.475064,36.2463,1.169496
0.027935,2.247787,21.38843,-2.094705,0.5764507,0.01429989,-0.7975735,1.537856,36.84378,1.11098
0.0259322,-2.058054,2.347295,-0.08953705,0.5842114,-0.004073431,-0.8199149,1.484486,36.90466,1.108658
0.023932,-2.113541,-1.529702,1.646728,0.5726856,-0.01539689,-0.832391,1.433905,36.86805,1.148068
0.0229296,1.026615,2.038518,-0.1594341,0.5700192,-0.009842779,-0.824908,1.457445,36.91479,1.144412
0.0249083,0.8897682,8.267483,-2.18282,0.578664,0.004309838,-0.8175956,1.479608,37.12072,1.090042
0.0299473,-1.945007,11.52556,-1.080634,0.5913584,0.002709463,-0.8069105,1.42136,37.46587,1.05768
0.0249348,-2.641599,1.423051,0.945752,0.5867887,-0.008457608,-0.8197911,1.355492,37.50136,1.081262
0.0219386,-0.581267,0.8066269,0.06551813,0.5809323,-0.008118323,-0.8197376,1.34274,37.51905,1.082699
0.0249698,0.9152347,9.591985,-2.659511,0.5768336,0.001681847,-0.8275647,1.365593,37.75856,1.016292
0.021903,1.400122,24.52801,-5.925872,0.6017909,0.005659894,-0.8028406,1.39626,38.2958,0.8864973
0.0239357,0.2351519,17.71323,-4.265195,0.620954,0.009402918,-0.7834595,1.401889,38.71978,0.7844068
0.0219758,-2.418556,2.262234,1.116389,0.616,-0.009902877,-0.802775,1.348739,38.76949,0.8089404
0.0249358,-0.7324386,-0.5775309,3.734587,0.5984089,-0.01384237,-0.8098807,1.330475,38.75509,0.9020653
0.0288906,1.121124,3.54836,-0.1318693,0.5986315,0.007415125,-0.7935511,1.362865,38.8576,0.8982555
0.0289204,-1.525323,8.677484,-1.324429,0.6123677,0.01442521,-0.7918646,1.318752,39.10856,0.8599525
0.0239709,-2.475875,3.463672,0.2263081,0.6186391,-0.003064406,-0.8012248,1.259403,39.19159,0.8653773
0.0239298,-0.1700287,1.419268,1.837051,0.6072173,-0.01158364,-0.8130674,1.255334,39.22555,0.9093376
0.0229405,2.65349,8.729142,0.3384442,0.6074267,0.002445861,-0.7929881,1.316207,39.4258,0.9171017
0.0239311,0.9660637,14.24098,-2.053505,0.6124997,0.01350205,-0.7814503,1.339326,39.7666,0.867959
0.021953,-2.355398,8.48937,-2.311703,0.6283222,0.007068268,-0.7761539,1.287618,39.95297,0.8172102
0.0278922,-2.882902,1.535003,0.1462639,0.6282501,-0.01147919,-0.7960176,1.207207,39.99578,0.8212898
0.0309163,1.770742,2.024412,1.03544,0.6201733,0.009198414,-0.789967,1.261952,40.05837,0.8533018
0.02592,1.654881,5.622086,-0.2921349,0.6266736,0.000243172,-0.7790403,1.304846,40.2041,0.8457297
0.0219397,-0.3037086,4.770317,0.5578271,0.631872,-0.001963617,-0.7740892,1.298183,40.30876,0.8579683
0.0259056,-2.51978,1.884587,2.541554,0.6290035,-0.0007670056,-0.7907863,1.232907,40.35758,0.9238088
0.0229367,-0.9174895,2.550315,2.621926,0.6215239,0.007619035,-0.7902066,1.211863,40.41607,0.9839471
0.0249716,0.6137702,6.249071,0.2335998,0.6156582,0.008197554,-0.789416,1.227189,40.57212,0.9897805
0.0238981,0.6357439,6.4506,-2.618418,0.6407146,-0.0002467791,-0.7691891,1.242383,40.72628,0.9272053
0.0229619,-1.764383,1.392664,-0.4337336,0.64483,-0.004946374,-0.775668,1.201869,40.75826,0.9172459
0.0259358,-1.922396,0.5750334,3.310468,0.6346246,-0.007955196,-0.789174,1.15201,40.77317,1.003106
0.0259398,0.9627154,2.0675,3.311733,0.6270851,0.003454079,-0.7842839,1.176983,40.8268,1.089011
0.0249329,1.067317,2.257513,0.6856356,0.6378728,0.007917432,-0.7687997,1.203594,40.88309,1.106106
0.0259027,-1.849262,1.938674,1.486539,0.6404278,-0.01469007,-0.7821629,1.155693,40.9333,1.144611
0.0209506,-0.7726315,1.65607,3.088932,0.6311184,-0.008075018,-0.7919142,1.139506,40.968,1.209326
0.0258948,2.301797,10.03247,1.912017,0.6271582,0.006117368,-0.7808325,1.199111,41.22779,1.258838
0.0219793,2.07483,13.33514,-0.5819081,0.6431791,0.01615381,-0.7553173,1.244714,41.52089,1.246048
0.0278918,-1.305166,3.90479,0.05392083,0.6524333,0.007326443,-0.7617622,1.20831,41.6298,1.247552
0.027959,-0.4357176,-0.5109568,2.544697,0.6432542,-0.01833577,-0.7827665,1.196128,41.61551,1.318699
0.0248992,2.640974,2.063849,1.329101,0.6394075,-0.003046607,-0.7713082,1.261886,41.6669,1.351792
0.0239715,1.724477,7.075765,-1.04716,0.6421708,0.001395578,-0.7581281,1.303225,41.83652,1.32669
0.0249314,-1.209395,5.841819,-0.9884686,0.6606604,-0.009735311,-0.7606765,1.273073,41.98216,1.302046
0.0219457,-1.614891,1.492111,1.709852,0.6534444,-0.009829368,-0.7698358,1.237633,42.01491,1.33957
0.0239254,0.2918848,-0.183062,2.986057,0.6436785,-0.004739099,-0.7709001,1.244616,42.01053,1.411013
0.0219487,1.850028,0.5821292,0.4653206,0.6398406,-0.004668337,-0.7657982,1.285222,42.0233,1.421226
0.0219095,1.090228,1.329342,-2.379622,0.6479015,0.001665319,-0.7580565,1.309108,42.05243,1.36909
0.0259623,-0.6063801,0.7630464,-2.662223,0.6558478,-0.002987063,-0.7690238,1.293365,42.07224,1.299972
0.0268943,1.088367,0.5518781,-0.3618664,0.6576336,-0.003005139,-0.7650797,1.322636,42.08708,1.29024
0.0219322,1.312004,0.6501905,1.062463,0.6494411,4.586764E-06,-0.7643006,1.351411,42.10134,1.313542
0.024896,0.2321263,3.355715,0.1402364,0.6476167,0.004527228,-0.7663754,1.35719,42.18489,1.317034
0.0309524,0.7876332,11.82523,-1.219802,0.6639471,-0.01229408,-0.7591833,1.381569,42.55091,1.279278
0.0278924,0.7431439,4.068314,1.591548,0.6551928,0.002221167,-0.7448481,1.402297,42.66438,1.32367
0.0249307,-2.027908,-0.3431502,1.576818,0.6557441,0.001478141,-0.7612719,1.35174,42.65583,1.362981
0.026909,1.077071,0.1319208,-0.1462999,0.6561195,-0.01667505,-0.7666634,1.380723,42.65938,1.359044
0.0329012,2.294142,2.236772,0.05445156,0.6620862,-0.008967997,-0.7465575,1.456203,42.73297,1.360836
0.0288979,-0.7131848,1.294298,1.279965,0.6589838,-0.004657776,-0.754288,1.435594,42.77037,1.397824
0.0299513,0.1314836,-0.01279611,0.7376664,0.6611312,-0.01023292,-0.7589582,1.439532,42.76999,1.419918
0.027889,0.7620242,0.7044872,1.138281,0.6634986,-0.00732826,-0.7535159,1.460784,42.78964,1.451664
0.0239694,0.8555968,4.722469,0.5871443,0.6486291,-0.001564911,-0.7675084,1.481292,42.90283,1.465737
0.0239278,2.126598,12.51403,-2.469612,0.6649677,0.002643246,-0.7465649,1.532177,43.20227,1.406645
0.0239464,0.6145614,6.69741,-1.647515,0.6808398,-0.001019115,-0.7357327,1.546893,43.36264,1.367193
0.0249367,-1.207184,-1.305548,2.528293,0.6694647,-0.02069539,-0.7588063,1.51679,43.33009,1.43024
0.0279253,2.136804,0.8539047,1.099181,0.6590518,-0.01154277,-0.74698,1.576461,43.35394,1.460935
0.0268942,0.8624719,4.715188,-1.717111,0.6708545,0.0008537928,-0.7488346,1.599656,43.48075,1.414755
0.025931,-1.551252,10.80767,-0.5112634,0.6839427,-0.00599018,-0.7387937,1.559431,43.761,1.401497
0.0239709,-1.374791,1.594646,2.655868,0.6770967,-0.01219878,-0.7461519,1.526476,43.79922,1.46516
0.0248966,0.4315544,-0.8959586,2.491168,0.6643769,-0.01783377,-0.7519842,1.53722,43.77692,1.527182
0.0229657,1.830347,1.726406,0.1282529,0.6680282,-0.01275525,-0.7420985,1.579255,43.81657,1.530127
0.0249413,-0.2499478,1.965979,-0.9924939,0.6759956,-0.009464229,-0.73585,1.573021,43.8656,1.505373
0.0239361,-2.069845,0.3154431,-0.4768877,0.6737366,-0.005278838,-0.7425903,1.523477,43.87315,1.493958
0.0279263,-0.3626827,0.2335016,-0.084699,0.6753022,-0.009004227,-0.750442,1.513349,43.87967,1.491593
0.0248988,1.297623,0.7879024,0.3135056,0.6777061,-0.003458414,-0.7382392,1.545658,43.89929,1.499399
0.0219747,-0.1671342,-0.07764295,1.242329,0.6768217,-0.00800861,-0.7338687,1.541986,43.89759,1.526699
0.0269288,-1.867592,-0.2074198,1.006288,0.6708465,-0.01290624,-0.7542005,1.491694,43.892,1.553797
0.0229389,1.398104,1.916927,-0.1795028,0.6800416,-0.007891678,-0.7492734,1.523765,43.93597,1.549679
0.0249197,1.599989,9.304189,1.368304,0.6863092,-0.01299839,-0.7297425,1.563636,44.16783,1.583777
0.0249047,-0.293574,5.928966,2.194446,0.6763296,-0.003681058,-0.7240386,1.556324,44.31549,1.638429
0.0259324,-2.003028,-0.7708241,1.455098,0.676752,-0.01781679,-0.7460724,1.504381,44.2955,1.676163
0.0279583,1.272757,-0.5866189,0.2716464,0.6769264,-0.02422113,-0.737534,1.539965,44.2791,1.683758
0.0259318,1.656678,1.273457,-0.7620534,0.6789033,-0.01044173,-0.7337375,1.582926,44.31213,1.663997
0.0229406,0.1258269,2.069289,-0.1791314,0.6918147,-0.007211653,-0.7333129,1.585812,44.3596,1.659887
0.0249312,-1.358942,0.7291471,3.077077,0.6858488,-0.01371827,-0.7319595,1.551932,44.37777,1.736602
0.0219397,-1.979655,-0.2651754,3.579421,0.6704574,-0.012016,-0.741451,1.508499,44.37196,1.815134
0.0239014,-0.1871885,1.642244,-0.09509166,0.6751091,-0.006233071,-0.7450318,1.504025,44.41121,1.812861
0.0219417,1.432188,6.370271,-2.021198,0.680922,-0.01252189,-0.75003,1.53545,44.55098,1.768512
0.0239364,3.041115,12.43812,-2.286088,0.6918535,-0.0002366779,-0.7173293,1.608243,44.84871,1.713792
0.024967,-0.693036,3.520829,0.7260475,0.6957392,-0.0165544,-0.7209493,1.59094,44.93661,1.731919
0.027916,-3.608719,-3.108536,3.156488,0.6811139,-0.02204815,-0.7309715,1.490199,44.84984,1.820035
0.0249437,-2.562111,-1.620219,0.9844384,0.6756206,-0.01784219,-0.7430218,1.426291,44.80943,1.844591
0.0229283,0.2875633,2.907288,-1.892639,0.6865872,-0.007592271,-0.7347275,1.432884,44.87608,1.801196
0.0239114,1.027099,3.534694,-1.306024,0.6986855,-0.006494905,-0.7262374,1.457443,44.9606,1.769967
0.022968,0.3323591,0.2754669,0.8371989,0.6882216,-0.004691695,-0.7291716,1.465077,44.96693,1.789196
0.0249057,0.2468505,-1.631334,0.2384179,0.685369,-0.01604074,-0.7318588,1.471225,44.9263,1.795134
0.0269607,1.550955,1.345664,-1.409331,0.6874489,-0.02006578,-0.7310032,1.51304,44.96258,1.757137
0.0248906,1.058463,2.724268,-1.189756,0.6962166,-0.003831568,-0.724533,1.539385,45.03039,1.727524
0.0259664,-1.082481,0.1644257,1.439344,0.6987387,-0.005312127,-0.7204675,1.511277,45.03466,1.764898
0.0249338,-2.66877,-2.213625,2.619169,0.6820964,-0.01359585,-0.7345785,1.444735,44.97947,1.830204
0.0229402,-0.3719558,0.7351527,-0.1133257,0.6817695,-0.01247254,-0.7384971,1.436202,44.99633,1.827604
0.0239353,2.22403,2.567032,-1.511701,0.6970654,-0.006645379,-0.7230712,1.489435,45.05777,1.791421
0.0229074,0.9508239,0.7075541,0.6658561,0.6990064,-0.01019167,-0.7208656,1.511216,45.07398,1.806674
0.0249349,-0.6090294,-1.301598,2.215514,0.6843542,-0.02309333,-0.7368229,1.496029,45.04153,1.861918
0.0229697,1.163936,1.000528,-0.03180879,0.6838162,-0.02177972,-0.7327753,1.522765,45.06451,1.861187
0.0308827,0.9261974,1.747924,-0.8839295,0.6962981,-0.01168744,-0.7180896,1.551368,45.11849,1.833889
0.0329508,-1.339838,-0.9651353,0.9642005,0.6881495,-0.008945269,-0.7321437,1.50722,45.08669,1.86566
0.0288836,0.07800737,-0.1708212,-0.09267397,0.6898457,-0.01567487,-0.7287373,1.509473,45.08176,1.862984
0.0278907,0.5113074,1.264825,0.09335879,0.6928542,-0.006997042,-0.7281505,1.523733,45.11703,1.865588
0.0279601,0.7133229,0.4943489,1.839008,0.6975054,-0.0166336,-0.7261992,1.543678,45.13086,1.917006
0.0229829,-0.03211312,-0.2963125,2.866691,0.6862282,-0.01720807,-0.720947,1.54294,45.12405,1.982891
0.0248903,-1.528057,0.3853354,0.6228775,0.6856927,-0.01165908,-0.7296182,1.504906,45.13364,1.998395
0.0249333,-0.1869367,1.839617,-1.032288,0.6927394,-0.01609818,-0.73655,1.500245,45.1795,1.972656
0.0269271,1.69101,7.240564,0.3367297,0.7026993,-0.0248394,-0.7187154,1.545779,45.37447,1.981724
0.0299208,-0.5764279,0.9684218,2.568773,0.6889276,-0.007591608,-0.7148415,1.528532,45.40345,2.058583
0.0339448,-0.474194,-0.3997826,0.7759711,0.6939829,-0.02251484,-0.7254246,1.512436,45.38988,2.084924
0.0259319,0.6185482,-0.4795339,0.05053411,0.6884511,-0.017671,-0.7232521,1.528476,45.37745,2.086234
0.0289209,0.9150028,5.09709,-2.572025,0.6891986,-0.008284607,-0.7389907,1.554938,45.52486,2.011849
0.0259228,3.769439,17.90252,-3.932166,0.7139579,-0.01774109,-0.7136262,1.652653,45.98894,1.909916
0.0229393,2.757165,9.65436,-0.7535551,0.7107106,-0.01048291,-0.6873841,1.7159,46.21041,1.89263
0.0259423,-2.907262,-2.06505,1.872368,0.7065049,-0.01362202,-0.7139337,1.640479,46.15683,1.941204
0.029956,-2.755162,-5.637818,2.807424,0.7009336,-0.01337912,-0.7175546,1.557945,45.98795,2.025303
0.0278898,-2.003569,-6.6423,2.108806,0.6902236,-0.02374265,-0.7269498,1.502066,45.80269,2.084117
0.0229769,-0.4005907,-1.731334,-0.6268397,0.6953927,-0.02070503,-0.7212273,1.492862,45.76291,2.069714
0.0248989,0.2761009,0.1687207,-1.518359,0.7041371,-0.01677166,-0.719255,1.499737,45.76711,2.031909
0.0259647,0.2746758,-0.7760756,-0.007714224,0.701543,-0.01190819,-0.7180273,1.506868,45.74696,2.031708
0.0229085,0.2176503,-1.45951,0.3501157,0.6957453,-0.01434799,-0.7222823,1.511855,45.71353,2.039729
0.0209762,0.7258589,-0.5022927,-0.4574333,0.6967459,-0.01751027,-0.7233952,1.52708,45.70299,2.030134
0.0269331,1.313395,1.093747,-0.7291726,0.7000722,-0.008737427,-0.7185136,1.562454,45.73245,2.010495
0.0268888,0.9795453,1.891961,0.2195181,0.7039022,-0.01223948,-0.7216782,1.588793,45.78332,2.016398
0.0229787,1.023732,2.092257,1.309663,0.701189,-0.01520673,-0.7179318,1.612317,45.8314,2.046492
0.023972,-0.02072788,1.476215,1.880509,0.6981212,-0.01829114,-0.7151712,1.61182,45.86679,2.091572
0.0248957,-0.3545167,0.995504,1.035481,0.6927043,-0.01594778,-0.722453,1.602994,45.89157,2.117351
0.0249353,0.5901926,1.324375,-1.217316,0.7005159,-0.01267781,-0.713142,1.617711,45.92459,2.086997
0.0299189,-1.192865,-0.4644692,-0.8867639,0.7019916,-0.0233597,-0.7214105,1.582022,45.9107,2.060466
0.0249329,0.03710221,-1.434428,-0.2312676,0.7031192,-0.02504994,-0.7234922,1.582947,45.87494,2.054699
0.0289239,0.6990712,-0.94017,0.5233346,0.7040865,-0.01839311,-0.7141187,1.603167,45.84774,2.069836
0.0239365,-0.8046276,-0.1514839,1.332892,0.6948648,-0.01546936,-0.7194815,1.583907,45.84411,2.101741
0.0239553,-0.5630653,-0.5194266,-0.3383221,0.6912562,-0.01875963,-0.7228578,1.570418,45.83167,2.093637
0.0219424,0.6199095,0.002981388,-2.192539,0.7063325,-0.0148037,-0.7199502,1.58402,45.83173,2.045527
0.0239003,0.9839647,1.109239,-0.4212843,0.7087694,-0.01662971,-0.7190751,1.607538,45.85825,2.035458
0.0239694,0.7059684,1.438057,2.166615,0.7060365,-0.01777319,-0.7142132,1.624459,45.89272,2.087391
0.023928,-0.7976359,0.652389,2.464179,0.6927016,-0.01406452,-0.7118984,1.605373,45.90833,2.146353
0.0269002,-1.8162,-0.7510555,-0.4354296,0.6927999,-0.01449461,-0.7206032,1.556517,45.88812,2.13464
0.0239712,-0.06441578,-0.7986788,-1.946864,0.7100036,-0.01722728,-0.7201674,1.554973,45.86898,2.087972
0.02592,0.6692095,-0.2011535,1.232411,0.7103638,-0.02090027,-0.7183497,1.572319,45.86376,2.119916
0.023911,-0.2275131,0.740013,3.429305,0.6939215,-0.01246797,-0.7124854,1.566879,45.88145,2.201914
0.0239637,-1.635179,0.7844157,1.066247,0.6922666,-0.01366766,-0.716804,1.527694,45.90025,2.227465
0.0229295,-1.280574,0.05606743,-0.8664082,0.6976082,-0.02337519,-0.7220768,1.498331,45.90154,2.207599
0.0229628,-0.5569158,0.08021941,-1.239264,0.7029169,-0.0216725,-0.717465,1.485543,45.90338,2.179142
0.0219421,-0.7625731,0.5359889,-0.4628767,0.7043697,-0.0170221,-0.7181507,1.46881,45.91514,2.168986
0.0229401,-0.08119654,0.7619165,0.1669189,0.7030202,-0.0139737,-0.7185138,1.466948,45.93262,2.172815
0.027925,0.3253612,0.4732787,0.5106168,0.7005687,-0.01631717,-0.7165986,1.476033,45.94584,2.187074
0.0249664,-0.2527394,-0.1469335,0.4283726,0.7018945,-0.01681016,-0.7149925,1.469723,45.94217,2.197769
0.0249348,-0.8434306,-0.1707248,0.6416755,0.702064,-0.0184941,-0.7186793,1.448692,45.93791,2.213769
0.0249676,-0.4881514,0.347539,0.5759999,0.6984058,-0.01520613,-0.7199269,1.436504,45.94659,2.22815
0.0229728,0.1412177,0.7858911,-0.05247979,0.7021663,-0.01189727,-0.7192454,1.439749,45.96465,2.226944
0.024921,0.2522677,0.5709841,-0.2872395,0.7009163,-0.01314481,-0.7160822,1.446035,45.97887,2.219786
0.029909,-0.2862584,-0.0175068,0.12227,0.7021945,-0.02093592,-0.718572,1.437474,45.97835,2.223443
0.0299197,0.243206,0.2901393,0.2981214,0.7004457,-0.01570651,-0.7167185,1.44475,45.98703,2.232363
0.0319426,-0.08963952,0.01766863,-0.07693632,0.7021779,-0.0198446,-0.7174615,1.441887,45.9876,2.229905
0.0279222,-0.09412631,0.0184429,-0.2598033,0.7003238,-0.01607411,-0.7165999,1.439259,45.98811,2.222651
0.0259292,-0.124122,-0.2221217,-0.5522813,0.7045894,-0.01776988,-0.7157017,1.43604,45.98235,2.208331
0.0249018,-0.6545271,-0.08822383,-0.05614402,0.7011766,-0.01925251,-0.7153857,1.419742,45.98016,2.206933
0.0249323,-0.784417,-0.03137162,-0.4395798,0.7005914,-0.01348889,-0.7196433,1.400184,45.97937,2.195973
0.0219765,-0.3868259,-0.3240462,-0.687608,0.704817,-0.01337318,-0.7157912,1.391683,45.97225,2.180862
0.0229292,-0.3987249,-0.884629,-0.1598572,0.7018306,-0.01836655,-0.7196619,1.382541,45.95197,2.177196
0.021908,0.1955977,-0.2750424,0.1513176,0.7023016,-0.01555987,-0.7191464,1.386826,45.94594,2.180511
0.0319469,0.3262668,0.01698074,0.1171083,0.7007798,-0.01119621,-0.7154576,1.397249,45.94648,2.184253
0.0268941,-0.4318237,-0.3655096,-0.1527638,0.7017862,-0.01545637,-0.7167004,1.385635,45.93665,2.180144
0.0259648,-0.7235352,-0.3472875,-0.2344009,0.7007031,-0.01838949,-0.7169791,1.366849,45.92764,2.174058
0.0258944,-0.7971411,-0.7531996,-0.2541797,0.700966,-0.01837692,-0.7186919,1.346208,45.90813,2.167476
0.0299563,-0.435106,-0.3230916,0.2209411,0.7021987,-0.01554893,-0.7208637,1.333173,45.89845,2.174095
0.0258949,0.204473,-0.09331515,0.1012218,0.6976297,-0.01633762,-0.7155313,1.338468,45.89604,2.176716
0.0269648,-0.3159557,-0.1977507,-0.7021613,0.700213,-0.0168022,-0.7173418,1.329949,45.89071,2.157782
0.0248977,-0.5200108,-0.1335395,-0.5279911,0.7018232,-0.0107838,-0.7216935,1.317001,45.88738,2.144637
0.0319491,0.4258185,-0.01937223,-0.08138791,0.7033524,-0.009342139,-0.7171295,1.330606,45.88676,2.142036
0.0259284,0.279047,-0.3083973,0.3232054,0.6991031,-0.01644742,-0.7163723,1.337841,45.87877,2.150417
0.0239032,-0.07320789,-0.5479047,0.04548009,0.6996131,-0.0165542,-0.718328,1.336091,45.86567,2.151504
0.0269649,0.06861216,-0.4035512,-0.180554,0.700826,-0.0098222,-0.7201054,1.337942,45.85479,2.146635
0.0269103,0.3465154,0.3260435,-0.0696473,0.7028758,-0.01178505,-0.7172748,1.347266,45.86356,2.144761
0.0239497,0.2301229,0.07839502,0.290696,0.7022758,-0.01557545,-0.7168179,1.352778,45.86544,2.151723
0.0249004,-0.431958,-0.5689675,0.6030365,0.699222,-0.01975281,-0.7149227,1.342022,45.85127,2.166739
0.0279242,-0.5547802,-0.3062962,-0.09871043,0.6978044,-0.0186303,-0.7194675,1.32653,45.84272,2.163983
0.0269316,-0.1822882,0.2196953,-0.3204561,0.7000062,-0.01384391,-0.7217367,1.321621,45.84863,2.155352
0.0239694,0.8973838,-0.3522663,-0.3313496,0.6980363,-0.01361912,-0.7201656,1.34313,45.84019,2.14741
0.023936,1.150923,-0.232229,-0.7683415,0.7033309,-0.01449481,-0.7133654,1.370679,45.83463,2.129019
0.0229635,-0.252056,-0.05417231,-0.1017917,0.7020164,-0.01509643,-0.715592,1.364891,45.83339,2.126681
0.0249429,-1.025448,0.0687002,0.668875,0.6982863,-0.01141162,-0.7214957,1.339313,45.8351,2.143365
0.0219404,-0.3719115,0.2498758,0.3096792,0.6982626,-0.009223242,-0.7201325,1.331153,45.84058,2.150159
0.0239356,0.08440123,-0.02560155,-0.2486621,0.6987642,-0.01300629,-0.72003,1.333174,45.83997,2.144207
0.023927,0.4504268,-0.232392,-0.733707,0.6996027,-0.01496966,-0.7179495,1.343951,45.83441,2.126652
0.0289235,0.3353629,-0.3596473,-1.070432,0.6981281,-0.01559478,-0.7167459,1.353651,45.82401,2.095691
0.0279216,-0.0749184,-0.06463306,-1.14181,0.7029153,-0.0178799,-0.7186647,1.351559,45.8222,2.06381
0.0259319,0.03762734,-0.2158217,0.1417751,0.700236,-0.01507507,-0.7200263,1.352535,45.8166,2.067487
0.0249085,0.6588531,0.01066251,0.2477128,0.6986596,-0.01630046,-0.7204217,1.368946,45.81687,2.073657
0.0249598,1.019429,-0.1401674,-0.3187841,0.698629,-0.01815459,-0.7170027,1.39439,45.81337,2.0657
0.021949,0.428167,0.06589352,-0.6349692,0.699226,-0.01669103,-0.7163724,1.403788,45.81482,2.051763
0.0229725,-0.4549686,0.5413724,-0.2867768,0.7031187,-0.01019367,-0.7177511,1.393336,45.82726,2.045175
0.019939,-0.933282,0.1922271,0.5979688,0.7016544,-0.0103231,-0.7176473,1.374728,45.83109,2.057098
0.027898,-0.7045012,-0.1821687,0.6647351,0.697439,-0.009943117,-0.7225991,1.355074,45.82601,2.075643
0.025966,0.3115937,0.001762797,-0.1891193,0.7019275,-0.01214005,-0.7196177,1.363164,45.82605,2.070732
0.0209088,0.3867314,-0.08532868,-0.0589195,0.7007042,-0.01728751,-0.7174618,1.371251,45.82427,2.0695
0.0219754,-0.2387547,-0.1789105,0.09119879,0.6989751,-0.01596212,-0.7160028,1.366004,45.82034,2.071504
0.0249003,-0.9339929,-0.5003772,-0.2865518,0.6957228,-0.01350493,-0.7205607,1.342747,45.80788,2.064369
0.0239623,-0.7673269,-0.3734919,-1.080066,0.7007008,-0.01239457,-0.718899,1.32436,45.79893,2.038488
0.0219514,-0.3703393,-0.05415118,-0.3812438,0.7023416,-0.0129659,-0.7236634,1.316231,45.79774,2.03012
0.0219236,0.7916957,0.2410581,0.5087023,0.7023156,-0.01567375,-0.7203728,1.333588,45.80302,2.041272
0.0229716,0.8454862,0.2970958,1.114756,0.7000541,-0.01743691,-0.7137933,1.35301,45.80984,2.06688
0.025932,-0.736827,0.2196582,0.5455261,0.6950642,-0.01219104,-0.7166372,1.333902,45.81554,2.081027
0.0329494,-0.5381027,0.04260959,-1.426688,0.6984649,-0.01871932,-0.7239954,1.316172,45.81694,2.034018
0.0298839,0.8859087,0.4829216,-1.084341,0.7043319,-0.008968272,-0.7176054,1.342647,45.83138,2.001614
0.0349062,0.314463,-0.1093442,0.9500944,0.7008072,-0.01326005,-0.7171875,1.353623,45.82756,2.034778
0.0259541,-0.0615578,-0.3493198,0.8892138,0.6955889,-0.0186524,-0.717656,1.352026,45.81849,2.057857
0.0249426,-0.4772237,0.04887673,-0.6164542,0.6971296,-0.0105956,-0.7164785,1.340122,45.81971,2.042481
0.0249348,-1.023006,-0.2759635,-1.38112,0.703762,-0.007356106,-0.7217688,1.314614,45.81283,2.008043
0.029884,0.1926807,-0.03988879,-0.002204435,0.7048929,-0.01296021,-0.7227743,1.320372,45.81164,2.007977
0.0249344,0.9072434,-0.1115225,0.8038051,0.6993273,-0.0142555,-0.7153738,1.342994,45.80886,2.028019
0.0259644,-0.1839659,0.1261027,0.2740389,0.6972783,-0.0118027,-0.7184462,1.338217,45.81213,2.035135
0.0229352,-0.2726969,-0.2267624,-0.3385809,0.7006418,-0.01688492,-0.7229757,1.331963,45.80693,2.027369
0.0248962,0.6756334,-0.3940127,-0.2638486,0.7007311,-0.01959632,-0.7190709,1.348783,45.79712,2.0208
0.0249688,-0.1926343,0.0717677,-0.1401325,0.6992071,-0.01266412,-0.7160997,1.343974,45.79892,2.017301
0.0239353,-0.9696258,0.1529472,-0.3705637,0.7008382,-0.00981482,-0.7212085,1.320765,45.80258,2.008432
0.0239291,-0.2182045,-0.0006095236,-0.1428579,0.7006211,-0.01273675,-0.7225796,1.315544,45.80256,2.005013
0.0269024,0.6663554,-0.426348,-0.1684159,0.6969177,-0.01412627,-0.7180989,1.33347,45.79109,2.000482
0.0259551,0.3261508,-0.4745831,-0.8614507,0.6990992,-0.01008627,-0.7182896,1.341936,45.77877,1.978123
0.025939,0.1039156,-0.001303406,-0.6391432,0.7031578,-0.01482031,-0.7196212,1.344631,45.77874,1.961545
0.0249338,0.09030525,0.09929147,0.09332731,0.7013066,-0.01447455,-0.7178028,1.346883,45.78122,1.963871
0.0229375,-0.4707714,-0.06330913,0.1789287,0.6961669,-0.00667625,-0.7190372,1.336084,45.77976,1.967976
0.0259321,-0.196424,-0.08765694,-0.7025357,0.7010964,-0.009315579,-0.7226728,1.330991,45.77749,1.949757
0.0239706,0.536347,-0.2217048,-0.3525278,0.7005844,-0.01716433,-0.7177075,1.343847,45.77217,1.941307
0.0248984,0.10633,-0.0267028,0.2060676,0.698752,-0.01607298,-0.7178449,1.346495,45.77151,1.946438
0.0259307,-0.6473553,0.07667764,0.3264214,0.6991107,-0.01326111,-0.7181888,1.329708,45.7735,1.954902
0.0309184,-0.4012213,-0.3564739,0.1586334,0.6991597,-0.01225251,-0.7229618,1.317303,45.76248,1.959807
0.0259653,0.5623384,-0.2240457,0.0008778204,0.698278,-0.01239562,-0.7203994,1.331904,45.75666,1.95983
0.0269192,0.8089987,0.1930522,-0.1405777,0.6996046,-0.0168041,-0.7174718,1.353682,45.76186,1.956045
0.0258963,-0.1122834,0.05706042,-0.02861376,0.6995852,-0.01130897,-0.7176793,1.350774,45.76333,1.955304
0.0239701,-0.7660236,-0.2013016,-0.1426523,0.6991183,-0.007015479,-0.7210875,1.332413,45.75851,1.951885
0.0239023,-0.3501476,-0.2841868,-0.4113191,0.6998899,-0.01016983,-0.7235514,1.324043,45.75171,1.942054
0.0219739,0.5294042,-0.01932355,-0.2683603,0.7015556,-0.01165583,-0.7192512,1.335676,45.75129,1.936157
0.0248963,0.1649323,-0.1125991,0.02771331,0.6969432,-0.0116634,-0.7212686,1.339782,45.74849,1.936847
0.0269293,0.3873357,0.06363011,-0.4986223,0.7009911,-0.01885129,-0.7207786,1.350213,45.7502,1.923419
0.0229718,0.4059536,-0.04560893,0.2192839,0.69689,-0.01402059,-0.715647,1.359539,45.74915,1.928456
0.0249284,-0.7588879,-0.1394404,-0.05465528,0.6945975,-0.004226197,-0.7213684,1.340621,45.74567,1.927094
0.0239069,-0.5113195,-0.06929733,-0.9187033,0.6990253,-0.005774747,-0.7241445,1.328397,45.74402,1.905131
0.0219751,0.5856865,0.1903134,-0.7904252,0.7042901,-0.01907746,-0.7212303,1.341267,45.7482,1.887761
0.0229293,0.1504276,0.128999,0.4230774,0.6983121,-0.01085726,-0.7130337,1.344716,45.75116,1.897462
0.0209726,-1.420977,-0.1438736,0.4025097,0.6969457,-0.01129471,-0.7216338,1.314915,45.74814,1.905904
0.0239001,-0.8507873,-0.6047406,-0.1840887,0.6970869,-0.01470905,-0.7221459,1.294581,45.73368,1.901504
0.0279508,0.2829925,0.1271316,-0.4527892,0.6985109,-0.01166698,-0.7196561,1.302491,45.73724,1.888848
0.0269028,0.2393833,0.4806407,-0.3871241,0.6991122,-0.00787576,-0.7202355,1.308931,45.75017,1.878433
0.0269622,0.2980348,-0.1239167,-0.4981578,0.6996261,-0.01471074,-0.7201538,1.316967,45.74683,1.865002
0.0249286,0.3543494,-0.6502028,-0.1122164,0.700325,-0.01399305,-0.7174436,1.3258,45.73062,1.862204
0.0239413,-0.3229005,-0.07076238,0.2371511,0.6984871,-0.006786346,-0.7192549,1.318069,45.72893,1.867882
0.0229394,-0.1295176,0.3644039,-0.05737344,0.6979911,-0.003734126,-0.7196077,1.315098,45.73729,1.866566
0.0229716,-0.03847751,0.3926001,-0.3922044,0.6988621,-0.00971621,-0.7190254,1.314214,45.7463,1.857556
0.0239356,-0.303037,0.255132,-0.2273643,0.7022597,-0.01020076,-0.7172713,1.306961,45.75241,1.852114
0.0248984,-0.2483984,0.005403025,0.5875337,0.6962374,-0.00797974,-0.7249291,1.300776,45.75254,1.866743
0.0279604,0.847992,0.1275118,-0.4562659,0.6987956,-0.01012344,-0.7129002,1.324486,45.75611,1.853986
0.024902,-1.103873,-0.5140954,-0.6784179,0.6995459,-0.01439207,-0.7130431,1.296998,45.74331,1.837092
0.0249287,-2.131972,-0.6749753,-0.292071,0.699105,-0.01441518,-0.7282482,1.243851,45.72648,1.829811
0.023935,0.2596381,-0.2920676,0.2105506,0.7016179,-0.01565651,-0.7234457,1.250065,45.71949,1.83485
0.0249327,0.6810036,-0.5604957,0.5961558,0.6935964,-0.008406605,-0.7176095,1.267044,45.70552,1.849714
0.030882,-0.224125,-0.7163226,-0.6698585,0.698891,-0.008474936,-0.7220809,1.260123,45.6834,1.829027
0.0309529,-0.1774623,-0.04524878,0.09490544,0.7000842,-0.01105526,-0.7187747,1.25463,45.682,1.831965
0.0298842,-0.7406188,0.01848933,0.3176747,0.6923032,-0.004834625,-0.7232392,1.232497,45.68255,1.841458
0.0259659,0.07331993,-0.02623627,-0.8826658,0.7031637,-0.00918753,-0.7221564,1.234401,45.68187,1.818539
0.0279175,0.2520916,-0.1548623,0.4540777,0.7033448,-0.008123006,-0.7168761,1.241439,45.67754,1.831216
0.0269368,-0.4894164,-0.5104825,0.8830808,0.692564,-0.008005091,-0.7236257,1.228255,45.66379,1.855003
0.0229022,0.1438879,-0.08725251,-0.9238697,0.6991469,-0.01177076,-0.721978,1.231551,45.66179,1.833845
0.025963,0.606043,0.2272302,-0.6707742,0.7036658,-0.01309265,-0.7220547,1.247285,45.66769,1.816429
0.0239397,0.8160478,-0.5952621,0.7538958,0.6910816,-0.01108242,-0.7208456,1.266821,45.65344,1.834477
0.0279152,0.4633817,-0.3327133,-1.437428,0.6906725,-0.01453666,-0.7157262,1.279757,45.64415,1.794351
0.0279358,-1.768716,0.9031165,-2.330544,0.7040042,-0.01237331,-0.7198392,1.230346,45.66938,1.729246
0.0259299,-1.649839,0.5886127,-0.3690111,0.7014822,-0.0007357234,-0.7275119,1.187566,45.68465,1.719677
0.0229299,0.2998281,0.196187,0.8231778,0.7012166,-0.007847645,-0.7230289,1.194441,45.68914,1.738553
0.0239266,0.78528,0.0618413,1.265911,0.6948374,-0.009000069,-0.7193146,1.21323,45.69062,1.768842
0.0259059,0.4217404,0.1487023,0.2308953,0.6952237,-0.00494774,-0.7225916,1.224156,45.69448,1.774823
0.022937,0.7308573,-0.02718576,-0.6103861,0.6979012,-0.01338289,-0.7190624,1.240919,45.69386,1.760823
0.0239374,0.1370317,-0.3758893,-0.7679672,0.6971349,-0.01291753,-0.7161267,1.244199,45.68486,1.74244
0.0219613,-0.6198175,-0.4908664,-0.8597285,0.6986642,-0.006630103,-0.7242774,1.230587,45.67408,1.723559
0.0318964,1.347685,-0.485711,0.3420418,0.703664,-0.005873679,-0.7244564,1.273574,45.65858,1.734469
0.025954,1.385302,-0.3425919,1.483352,0.6945838,-0.01708369,-0.7155736,1.309528,45.64969,1.772968
0.0259411,-0.4229313,0.322542,0.3934806,0.6982594,-0.003351224,-0.7219307,1.298556,45.65806,1.783175
0.0269325,-0.292097,0.07430023,0.2598031,0.7008737,-0.004776021,-0.7261989,1.29069,45.66006,1.790172
0.0249228,1.288956,-0.3155597,0.3499981,0.6934175,-0.02048352,-0.719166,1.322814,45.65219,1.798895
0.0239406,0.9915258,0.2267139,-0.6603858,0.6966611,-0.01572584,-0.716397,1.346552,45.65762,1.783085
0.0239369,-0.0285524,0.1449563,-0.8179638,0.7009357,-0.005423586,-0.7205641,1.345868,45.66109,1.763505
0.0229044,-0.2211476,-0.3970993,-0.1907067,0.6997173,-0.007753423,-0.7198595,1.340803,45.652,1.759137
0.0289233,-0.6453967,-0.4391567,0.5044451,0.697045,-0.009716996,-0.7201508,1.322136,45.6393,1.773728
0.0349065,-0.72183,-0.01485309,0.2330901,0.6962261,-0.009210355,-0.7234668,1.296939,45.63878,1.781864
0.0269565,0.1233883,-0.2613818,-0.1800827,0.6997324,-0.01080372,-0.7201256,1.300266,45.63173,1.777009
0.0269268,-0.3452823,-0.476806,0.3042693,0.6976252,-0.007774157,-0.718169,1.290968,45.61889,1.785203
0.0239422,-1.153484,-0.3770392,0.4313974,0.6969769,-0.006870397,-0.7260157,1.263351,45.60987,1.795531
0.0239601,0.2671721,-0.04370794,0.4597106,0.6994163,-0.01640451,-0.7226196,1.269753,45.60882,1.806546
0.0229398,0.8256722,-0.3326589,0.8687977,0.6941219,-0.01437802,-0.7188702,1.288693,45.60119,1.826476
0.0269663,0.06752886,-0.5418109,-0.1482538,0.6910959,-0.01058427,-0.7223129,1.290514,45.58658,1.822478
0.0289229,0.8490706,-0.02926267,-1.619305,0.7018412,-0.01493362,-0.7218444,1.315072,45.58573,1.775643
0.0239366,0.9494321,0.5179879,-0.6570144,0.7017382,-0.006919148,-0.7154164,1.337798,45.59813,1.759916
0.0239015,-0.4565868,0.09578366,0.495019,0.6957132,-0.005678847,-0.7224681,1.326885,45.60042,1.771748
0.0229307,-0.02237841,-0.006493819,0.1112072,0.6975454,-0.01080859,-0.7208877,1.326372,45.60027,1.774298
0.0219526,0.0271264,0.1882804,-0.1367892,0.6982519,-0.00996391,-0.718912,1.326967,45.6044,1.771295
0.0219417,-0.9309339,0.3834784,-0.1359171,0.6956799,-0.00215008,-0.720728,1.306541,45.61282,1.768313
0.0229401,-0.8785813,0.326021,-0.3178988,0.6991977,-0.002072518,-0.7300006,1.286386,45.6203,1.76102
0.0258954,1.357064,0.09806237,0.2689758,0.7003914,-0.0105265,-0.724651,1.321528,45.62284,1.767986
0.0249685,1.171184,-0.2270338,0.5122251,0.6940747,-0.01550788,-0.7142206,1.350771,45.61717,1.780775
0.0259461,-1.229672,0.2278749,-0.1432043,0.6970201,-0.012669,-0.7168618,1.318866,45.62309,1.777059
0.0279265,-1.159653,0.02955631,0.1745528,0.6971614,-0.01564303,-0.7285255,1.286481,45.62391,1.781934
0.0248988,1.240329,-0.3513651,-0.06881902,0.6942699,-0.01069055,-0.7225202,1.317363,45.61516,1.780221
0.023936,1.16342,0.1019003,-0.747301,0.6985895,-0.0107136,-0.7160938,1.345211,45.6176,1.762333
0.0249659,-0.5277684,0.2062796,-0.6152515,0.6993726,-0.01435051,-0.7194189,1.332035,45.62275,1.746973
0.0239361,-0.7539492,-0.02017257,-0.2475886,0.6973754,-0.01260066,-0.7269083,1.313988,45.62226,1.741047
0.028888,0.9163754,0.219687,-0.4731994,0.6976321,-0.001039396,-0.7211869,1.34046,45.62861,1.727377
0.029959,0.1761571,-0.09567564,-0.3647955,0.7004303,-0.00849574,-0.7178947,1.345738,45.62575,1.716448
0.0259309,-0.5057732,-0.3453869,0.2904749,0.698641,-0.008969254,-0.721352,1.332623,45.61679,1.72398
0.0299103,0.2039766,0.2453031,0.2236164,0.6957139,-0.009594345,-0.7211467,1.338724,45.62413,1.730669
0.0278898,0.01180004,-0.1227165,-0.2481304,0.6970205,-0.008018571,-0.7185458,1.339053,45.6207,1.723748
0.0279247,-0.382809,-0.09177193,0.4183078,0.6995088,-0.00773319,-0.7230489,1.328363,45.61814,1.73543
0.0259518,0.3887349,0.3266408,0.620507,0.6932823,-0.01449571,-0.720107,1.338451,45.62662,1.751533
0.0259481,0.07521812,0.156951,-0.5931232,0.693734,-0.01194549,-0.7177549,1.340403,45.63069,1.736142
0.0269202,-0.8225541,-0.1898273,-1.542063,0.6988875,-0.005540155,-0.7227962,1.31826,45.62558,1.69463
0.0269324,0.04892862,-0.00473402,0.04124025,0.7013326,-0.003322856,-0.7240995,1.319577,45.62545,1.69574
0.0258952,0.5327529,0.1683703,0.8645247,0.6963552,-0.01336618,-0.7226359,1.333373,45.62981,1.718127
0.0219787,0.3571602,0.4070221,0.5383689,0.6984903,-0.01094518,-0.7180578,1.341223,45.63876,1.72996
0.0239285,-0.2743576,0.319228,0.5547779,0.6969749,-0.01042048,-0.7245693,1.334658,45.6464,1.743235
0.0219468,0.6018897,-0.09715816,0.1797767,0.6954955,-0.01153801,-0.7227563,1.347868,45.64426,1.747181
0.0229051,0.6054487,-0.5415384,-0.742896,0.6979875,-0.005204796,-0.7187598,1.361736,45.63186,1.730165
0.0229401,-0.5523162,-0.2927661,-0.5734357,0.7019667,-0.01040309,-0.7237729,1.349065,45.62514,1.71701
0.0299206,0.3860915,0.2541589,0.737089,0.6967049,-0.01374145,-0.7210407,1.360618,45.63274,1.739064
0.0269639,0.5609936,-0.009532472,0.1962507,0.6922553,-0.0007028524,-0.720392,1.375744,45.63249,1.744356
0.0239325,0.1913699,0.09271502,-1.049357,0.6995894,-0.001516535,-0.7215341,1.380324,45.63471,1.719242
0.0249276,0.3846743,-0.3265516,-0.2482954,0.7017151,-0.01897502,-0.7200352,1.389913,45.62657,1.713053
0.0229083,0.2685624,-0.4178637,0.9596455,0.6951033,-0.01547155,-0.7189884,1.396065,45.617,1.735036
0.0259324,-0.50265,-0.095277,0.5341953,0.6925157,-0.005831477,-0.7200565,1.38303,45.61452,1.748889
0.0229382,-0.5456248,0.06620441,-0.7090461,0.6953961,-0.009689354,-0.7254415,1.370515,45.61604,1.732625
0.024935,0.4025218,0.05447251,-1.44455,0.7001168,-0.01507398,-0.7202729,1.380551,45.6174,1.696605
0.0239018,0.02421117,0.1423675,-0.7526963,0.6976408,-0.008621317,-0.7192779,1.38113,45.6208,1.678615
0.031914,-0.597217,-0.06346577,-0.6405376,0.6976817,-0.006271507,-0.7237965,1.362071,45.61878,1.658172
0.0259308,-0.05285097,-0.1679676,-0.2937618,0.6994987,-0.008962984,-0.7217092,1.3607,45.61442,1.650555
0.0259322,-0.07871449,-0.2873536,0.5060509,0.6968437,-0.01152792,-0.7233527,1.358659,45.60697,1.663678
0.0248971,0.1556541,-0.02670324,0.1951858,0.6954651,-0.007028528,-0.7216223,1.362534,45.60631,1.668538
0.0239731,-0.2247115,0.2314921,-0.2116098,0.6982828,-0.0119032,-0.7210088,1.357147,45.61186,1.663465
0.0248976,-0.1328325,-0.1590909,-0.1283629,0.6948871,-0.01153991,-0.7228863,1.35384,45.6079,1.660269
0.0229405,0.2554624,0.127945,-0.667511,0.6958272,-0.005071194,-0.7219722,1.3597,45.61083,1.644956
0.0239275,0.4241935,0.2198187,-0.5801201,0.7007298,-0.008461031,-0.7229165,1.36985,45.61609,1.631075
0.0289241,0.893573,-0.1488009,0.6681423,0.6945021,-0.01081892,-0.7214151,1.395696,45.61179,1.6504
0.0308811,0.5503817,0.2643381,-0.1051698,0.6944548,-0.0102356,-0.7173666,1.412692,45.61995,1.647153
0.0249324,-0.7937551,0.2500595,-0.5509108,0.69862,-0.008492426,-0.7196329,1.392902,45.62619,1.633417
0.0319522,-0.5520068,0.2860873,-0.1041209,0.6997258,-0.01208069,-0.7300632,1.375264,45.63533,1.63009
0.0258924,1.782797,-0.08926411,0.2283243,0.6973576,-0.007300054,-0.7162078,1.421425,45.63301,1.636002
0.0249666,-0.01816964,-0.3393315,0.4140539,0.6980665,-0.009758019,-0.7132743,1.420972,45.62454,1.646339
0.0229484,-1.69136,-0.06588545,0.3187799,0.6939155,-0.008482493,-0.7243479,1.382158,45.62303,1.653655
0.0269301,-0.7439426,-0.2368787,-0.5122656,0.6942971,-0.007981888,-0.7259333,1.362123,45.61665,1.63986
0.0279229,0.4976664,-0.4179207,-0.9063373,0.6990075,-0.009456751,-0.7212282,1.37602,45.60498,1.614552
0.0229409,0.1582994,-0.2489683,-0.3413658,0.7002113,-0.005911882,-0.7210665,1.379651,45.59927,1.606721
0.0259296,-0.05747256,-0.08032744,0.0827656,0.6974293,-0.009214752,-0.7219812,1.378161,45.59719,1.608867
0.0239009,0.2569357,-0.03119221,0.2044617,0.6959648,-0.008610076,-0.7221175,1.384302,45.59645,1.613754
0.0219736,0.6208447,0.4186386,0.07772184,0.6974117,-0.005187016,-0.7218311,1.397944,45.60564,1.615462
0.0219434,0.2623184,0.2495024,0.3514673,0.6972678,-0.008872024,-0.7185487,1.4037,45.61112,1.623174
0.0239355,-0.5415368,0.008844106,0.1029057,0.6965905,-0.01630726,-0.7208146,1.390738,45.61133,1.625637
0.0248987,-0.7699941,0.2505837,-0.1513788,0.6988791,-0.007870288,-0.7212188,1.371566,45.61757,1.621868
0.024959,-0.3761593,0.2424743,0.18596,0.6987882,-0.007117867,-0.7242792,1.362178,45.62362,1.626509
0.024933,0.4516329,-0.05755857,0.4107305,0.6964338,-0.009353484,-0.7201557,1.373438,45.62218,1.63675
0.0239128,-0.0197163,0.03101754,-0.03608456,0.6954364,-0.008024828,-0.7186878,1.372967,45.62292,1.635887
0.0239598,-0.3407838,0.2654144,-0.6616921,0.6976944,-0.00601915,-0.7250204,1.364802,45.62928,1.620033
0.0219375,0.5143041,0.1726151,-0.5826439,0.6986759,-0.01053904,-0.7239364,1.376084,45.63307,1.607252
0.0249093,0.9272096,0.3980449,-0.2782468,0.6971412,-0.01009908,-0.7177007,1.39918,45.64299,1.600321
0.0299534,-0.08278216,-0.07942251,-0.2478005,0.6982834,-0.01067915,-0.7214907,1.396701,45.64061,1.592898
0.032911,0.1190457,-0.06380397,0.125811,0.697292,-0.00946929,-0.7205138,1.400619,45.63851,1.597039
0.0329163,-0.7552206,0.1289125,-0.1093832,0.695338,-0.006420325,-0.7213746,1.37576,45.64275,1.593438
0.0279481,-0.238097,0.0481178,-0.906595,0.6984107,-0.006269879,-0.7235425,1.369105,45.6441,1.568101
0.0259307,0.6868208,-0.1310518,-0.6675497,0.6976477,-0.005924954,-0.7208527,1.386915,45.6407,1.550791
0.0249413,0.5285835,-0.1224491,-0.1628779,0.700322,-0.0115474,-0.7180397,1.400099,45.63764,1.546728
0.0269191,-0.2416609,0.1192967,0.1460867,0.6948577,-0.009966849,-0.720792,1.393593,45.64085,1.550661
0.0249081,-0.2929789,0.5172269,-0.4866122,0.6980463,-0.006270693,-0.7236695,1.386296,45.65374,1.53854
0.0219693,0.3734228,0.2114162,-0.3460627,0.6988772,-0.00872811,-0.7207345,1.3945,45.65838,1.530937
0.0269269,-0.1449451,0.1512742,0.2939352,0.699688,-0.007893539,-0.7171642,1.390597,45.66246,1.538852
0.0249444,-0.9774498,0.1284907,0.8296784,0.6966986,-0.005423778,-0.7234349,1.366215,45.66566,1.559548
0.0248966,-0.04800532,-0.002439787,0.3961727,0.6980562,-0.006387028,-0.7245283,1.36502,45.6656,1.569411
0.0249579,1.029439,-0.0308194,0.4217121,0.6975296,-0.00824825,-0.7203798,1.390712,45.66483,1.579936
0.0229188,0.5886984,0.01305313,0.301526,0.6976299,-0.009974011,-0.7178165,1.404205,45.66513,1.586847
0.0249283,-0.1557698,-0.1165793,-0.3329524,0.6972871,-0.01130783,-0.7194233,1.400321,45.66222,1.578547
0.0229718,-0.5123562,-0.02022502,-0.594428,0.6997356,-0.006518706,-0.7219346,1.388552,45.66175,1.564892
0.0248997,0.1042989,-0.02135207,-0.09443165,0.7018371,-0.008817445,-0.7236409,1.391149,45.66122,1.562541
0.0249687,0.9547271,-0.04088796,0.9201156,0.6981363,-0.01118441,-0.7190444,1.414987,45.6602,1.585515
0.0259302,0.075651,-0.09281677,0.441062,0.6949489,-0.008761111,-0.7184536,1.416949,45.65779,1.596952
0.0239348,-0.7783189,-0.233255,-0.350978,0.6977831,-0.009954604,-0.7206337,1.39832,45.65221,1.588551
0.02593,-0.691783,-0.2200326,-0.3105429,0.6956114,-0.009338434,-0.7229849,1.380382,45.6465,1.580499
0.0249346,0.0589309,0.4233798,-0.4293251,0.7010889,-0.004058047,-0.7238623,1.381851,45.65706,1.569794
0.0249326,0.9176875,0.5584242,0.2931842,0.7002192,-0.009211254,-0.7205989,1.404731,45.67098,1.577103
0.0239354,0.5546607,0.4091075,0.871799,0.6976256,-0.01193463,-0.7167268,1.418007,45.68077,1.59797
0.0259223,-0.6970442,0.06651668,0.5716304,0.6951066,-0.008861323,-0.7216394,1.399938,45.6825,1.612788
0.0259045,-0.2553621,-0.3085796,-0.3002481,0.6967216,-0.009081182,-0.7241954,1.393323,45.67451,1.605011
0.0279241,0.640626,-0.1274423,-0.7293596,0.6982491,-0.009598496,-0.718787,1.411212,45.67095,1.584644
0.0269318,0.4032614,0.4125856,-0.6988261,0.6983802,-0.005798788,-0.7209655,1.422073,45.68206,1.565823
0.0259269,0.157512,0.2424757,0.1423883,0.7009573,-0.009448861,-0.7210819,1.426157,45.68835,1.569515
0.023902,0.02275306,-0.4252374,0.9176055,0.697188,-0.01594486,-0.7198243,1.4267,45.67818,1.591447
0.022973,-0.5974415,0.06010979,0.3480052,0.6964572,-0.0104407,-0.721879,1.412975,45.67957,1.599442
0.021971,-0.3322372,0.676945,-0.1540522,0.6990153,-0.005658409,-0.7232858,1.405676,45.69444,1.596058
0.0259252,0.4663408,0.7428723,-0.1344342,0.6995969,-0.005427934,-0.7208256,1.417766,45.7137,1.592572
0.0259046,0.3951978,0.2401519,0.1665129,0.6999822,-0.01226756,-0.7201326,1.428003,45.71992,1.596886
0.023936,0.1802164,-0.08739138,0.603193,0.6977512,-0.01352273,-0.7164911,1.432317,45.71783,1.611324
0.0289202,-1.052496,0.4800268,0.3076368,0.6977314,-0.01267803,-0.7150146,1.401878,45.73171,1.620221
0.0248984,-1.810712,0.2401382,0.03437251,0.6992767,-0.003566424,-0.7255971,1.356795,45.73769,1.621077
0.0229444,0.3403253,-0.4258904,0.1871439,0.7002001,-0.004989001,-0.7313568,1.364603,45.72792,1.625371
0.0258915,2.509421,-0.06847795,-0.1155014,0.6984707,-0.009121398,-0.7169423,1.429576,45.72614,1.62238
0.0289557,-0.2182779,0.2979568,0.2064972,0.7014012,-0.01950788,-0.7135461,1.423255,45.73477,1.628359
0.0249002,-1.843294,0.1656706,0.2351525,0.6989265,-0.008820667,-0.7251474,1.377357,45.7389,1.634215
0.0249677,-0.5715597,0.2968095,-0.08959574,0.7008148,-0.00162989,-0.7220103,1.363086,45.74631,1.631978
0.0289224,0.3781936,-0.3245977,0.03752375,0.6945179,-0.01068701,-0.7228849,1.374025,45.73692,1.633063
0.0259312,1.152164,-0.04059288,-0.9870866,0.7021377,-0.0102013,-0.7172728,1.403902,45.73587,1.607467
0.0229304,0.2897858,0.1210002,-0.2277532,0.7049003,-0.009847154,-0.7135594,1.410547,45.73864,1.602244
0.0269554,-1.393518,0.07828721,1.249054,0.6962051,-0.007387393,-0.7222287,1.372984,45.74075,1.635913
0.0249066,-0.5887328,0.05673076,0.3047761,0.6962579,-0.01004768,-0.7260463,1.35832,45.74216,1.643504
0.0219656,0.8074032,0.05166135,-0.542087,0.7004206,-0.009113508,-0.7167959,1.376056,45.74329,1.631597
0.0229374,0.1191117,-0.02311391,-0.337431,0.6985996,-0.008504727,-0.7177945,1.378788,45.74276,1.623857
0.0239125,-0.6097673,0.0950863,-0.4628368,0.6963423,-0.009825119,-0.7227342,1.364207,45.74504,1.612789
0.0269283,0.6757601,0.008642613,-0.8202792,0.7040305,-0.01247981,-0.7221686,1.382404,45.74527,1.5907
0.0279257,0.9873735,0.3063251,0.3676097,0.6989425,-0.008884084,-0.7155865,1.409977,45.75382,1.600966
0.0239642,-0.2608833,0.07637357,0.4260697,0.6950768,-0.008879363,-0.7189432,1.403725,45.75565,1.611176
0.0269021,0.02138692,-0.2475962,-1.151761,0.697069,-0.009947211,-0.7222359,1.4043,45.74899,1.580192
0.0269262,0.6351497,-0.1425579,-1.267539,0.7039518,-0.008488975,-0.7165034,1.421402,45.74516,1.546062
0.0298881,-0.8002674,-0.4818454,0.2941032,0.7003307,-0.00628003,-0.7206999,1.397484,45.73075,1.554852
0.025929,-0.09327252,0.05197193,0.3832681,0.695793,-0.004896359,-0.7299389,1.395065,45.7321,1.56479
0.0299214,2.344432,0.5304248,-0.1694235,0.7006691,-0.01229135,-0.7160794,1.465214,45.74797,1.55972
0.0329371,-0.6479921,-0.0259564,0.02809484,0.6966686,-0.0152318,-0.7172515,1.443871,45.74712,1.560646
0.0309283,-1.1032,-0.2573055,-0.8408424,0.7009754,-0.005154829,-0.7242391,1.409751,45.73916,1.53464
0.0259295,0.3307391,-0.4001674,-0.4293856,0.7013235,-0.006142939,-0.7222804,1.418327,45.72879,1.523506
0.0249354,0.3534098,0.1475399,0.189058,0.69925,-0.01386193,-0.7195396,1.427139,45.73246,1.52822
0.0259278,0.2663888,0.366193,0.04062854,0.6978068,-0.01348911,-0.7215159,1.434046,45.74196,1.529274
0.0248984,0.4864476,0.02693585,0.1229198,0.7008649,-0.003385989,-0.7149124,1.446158,45.74263,1.532334
0.0239376,-0.9684986,-0.1810509,0.6704219,0.6965218,-0.00362186,-0.7191344,1.422974,45.7383,1.548383
0.0269636,-0.630143,-0.07358544,-0.06875451,0.6990476,-0.00894302,-0.7250241,1.405984,45.73631,1.546529
0.0258956,0.4750496,0.4342068,0.2910126,0.7016641,-0.009338277,-0.7188662,1.418285,45.74756,1.554065
0.0229733,0.04358989,0.1910315,0.9972352,0.6974964,-0.0077788,-0.7175577,1.419287,45.75195,1.576974
0.0239269,-0.4982244,-0.180364,0.3192002,0.694486,-0.01021674,-0.7201853,1.407366,45.74763,1.584612
0.0239267,-0.1137964,-0.215562,-1.049545,0.7005847,-0.009454594,-0.7204736,1.404643,45.74247,1.5595
0.0239539,0.1950541,0.2479549,-0.7160813,0.7030301,-0.009684582,-0.7209357,1.409315,45.74841,1.542347
0.0209435,0.4202678,0.2883273,0.4190097,0.7013075,-0.01300552,-0.7184055,1.418117,45.75445,1.551122
0.0239024,-0.07150765,0.2352232,0.7779151,0.6974974,-0.009369086,-0.7170784,1.416408,45.76007,1.569716
0.0229389,-0.5419493,0.05617083,0.2674458,0.6981587,-0.009335204,-0.7217281,1.403976,45.76136,1.575851
0.0249361,0.05661571,-0.03000491,-0.2832184,0.6977766,-0.007633495,-0.7208629,1.405388,45.76062,1.568789
0.0229696,0.0526558,-0.1831268,-0.6329489,0.6992307,-0.01007999,-0.719146,1.406597,45.75641,1.55425
0.025897,-0.4224802,0.1086552,-0.6134463,0.7020121,-0.007267068,-0.7179896,1.395656,45.75922,1.538364
0.028946,-0.3313977,0.1642919,0.03833361,0.6991176,-0.00787248,-0.7207257,1.386064,45.76398,1.539474
0.0229406,0.01418624,0.2482094,-0.0336007,0.6999412,-0.007152605,-0.7182592,1.386389,45.76968,1.538703
0.0219654,-0.289855,0.02287232,0.02143436,0.7002049,-0.008363272,-0.7196127,1.380023,45.77018,1.539173
0.0219457,-0.259304,-0.1454743,-0.1215771,0.6970474,-0.007268067,-0.721237,1.374332,45.76699,1.536505
0.0239341,0.04983013,-0.2456362,-0.6878116,0.6983489,-0.008142862,-0.7173047,1.375525,45.76111,1.520043
0.0269304,-0.7267086,-0.07413255,-0.8474764,0.6989607,-0.00764937,-0.7176616,1.355954,45.75911,1.49722
0.0269281,-0.4945968,0.08754618,-0.536773,0.7024567,-0.005871742,-0.7255743,1.342636,45.76147,1.482766
0.0269643,1.087385,-0.1511467,0.4822745,0.7013115,-0.012636,-0.7188932,1.371956,45.7574,1.49577
0.0259663,0.4849037,0.1776851,0.6014258,0.6949003,-0.008178604,-0.7142826,1.384547,45.76201,1.511387
0.0288847,-0.7243114,0.05940667,-1.090194,0.6982673,-0.005671514,-0.721824,1.363626,45.76373,1.479897
0.0259522,0.1105695,-0.02809215,-1.430096,0.7029388,-0.007831004,-0.7243562,1.366495,45.763,1.442783
0.0249935,0.7908157,0.3075562,0.09283189,0.7054412,-0.008833916,-0.7186941,1.386261,45.77068,1.445103
0.0308586,-0.5756266,0.5834342,1.047741,0.69396,-0.005102321,-0.7185629,1.368497,45.78869,1.477435
0.0329272,-0.703605,-0.1388269,-0.6020895,0.6986471,-0.008108973,-0.7222039,1.34533,45.78412,1.45761
0.026919,0.255559,-0.4339528,-0.7360893,0.7021297,-0.003475563,-0.7189426,1.352209,45.77244,1.437795
0.0279174,-0.07891648,-0.1812369,0.4075462,0.7009285,-0.00567266,-0.7198304,1.350006,45.76738,1.449173
