DT,Velocity X,Velocity Y,Velocity Z,Acceleration X,Acceleration Y,Acceleration Z,Angle X,Angle Y,Angle Z
0.0309059,0.8297843,-0.2295626,-0.02538826,-0.03888026,0.05997843,-1.000872,0.06665282,0.1457904,0.2135151
0.0289228,-0.03444789,-0.01929771,0.1369445,-0.04193345,0.06106352,-1.000902,0.06565649,0.1452322,0.217476
0.0239456,0.040034,-0.01770637,-0.4593221,-0.04069507,0.06010137,-1.002242,0.06661513,0.1448082,0.2064772
0.0259689,0.3421726,-0.1110255,-0.6840174,-0.03573962,0.06205478,-0.9988586,0.07550097,0.141925,0.188714
0.0268905,-0.3667824,-0.03849252,0.2759306,-0.03912965,0.06303338,-1.001467,0.06563801,0.1408899,0.1961339
0.0299207,-0.1639326,0.08833707,0.205714,-0.04204892,0.06351437,-1.002357,0.06073304,0.1435331,0.202289
0.026956,0.08000312,-0.03442839,-0.4608314,-0.03986849,0.06412717,-1.001224,0.0628896,0.142605,0.1898669
0.0259361,0.582027,0.02885944,-0.2845608,-0.03959361,0.06353509,-1.003798,0.07798511,0.1433535,0.1824865
0.0249336,1.232848,0.03780473,0.009155376,-0.03890034,0.06192429,-0.999756,0.1087244,0.1442961,0.1827147
0.0269291,-0.1040577,0.01015108,0.2929298,-0.03758249,0.06069228,-0.9971744,0.1059223,0.1445695,0.1906031
0.0239365,-1.416601,0.2084443,0.6301246,-0.04252676,0.06204972,-1.002741,0.0720138,0.1495589,0.205686
0.0278895,0.1735161,0.1405102,-0.5975854,-0.04163818,0.06182987,-1.005796,0.07685307,0.1534777,0.1890197
0.0298867,0.9154631,0.2305873,-0.3026583,-0.03574147,0.06217603,-0.9987352,0.1042132,0.1603692,0.1799742
0.02992,-0.03785849,1.040709,0.4166343,-0.04037091,0.06166869,-0.9990403,0.1030805,0.1915072,0.1924399
0.0289573,-0.08231022,1.063517,-0.3069635,-0.03897234,0.05999593,-1.00357,0.100697,0.2223037,0.1835511
0.0278925,0.5122349,0.7946143,0.06059517,-0.03642186,0.06024577,-1.002679,0.1149846,0.2444675,0.1852413
0.0259604,0.9761893,0.5513378,0.4790765,-0.03872121,0.05718677,-1.003219,0.1403268,0.2587805,0.1976783
0.0258987,0.982184,0.501253,-0.03351587,-0.0373201,0.0594808,-0.9984053,0.1657641,0.2717623,0.1968102
0.0238996,-0.08005615,0.6916285,-0.0006686907,-0.03429173,0.06388756,-0.9980929,0.1638508,0.2882919,0.1967943
0.0259646,-0.4856311,1.537068,0.4994561,-0.03871107,0.06380109,-1.006483,0.1512416,0.3282013,0.2097625
0.0279255,0.773269,1.200878,-0.272108,-0.03768929,0.0643721,-0.999847,0.1728355,0.3617364,0.2021637
0.0279239,0.5398655,1.607984,-0.7853447,-0.0333208,0.06437858,-0.9978325,0.1879107,0.4066376,0.1802338
0.0289532,-0.07587693,1.51926,-0.1954566,-0.03300627,0.06001686,-1.002639,0.1857138,0.450625,0.1745747
0.0259356,0.3342425,1.130096,0.4057583,-0.03300938,0.05842412,-1.001792,0.1943826,0.4799348,0.1850983
0.0259237,0.1641391,1.265366,0.0470901,-0.03665112,0.05829554,-1.003308,0.1986377,0.5127378,0.1863191
0.0249333,0.2104417,1.104898,-0.65051,-0.03214019,0.05794781,-1.003011,0.2038847,0.5402865,0.1700997
0.0249684,0.2824325,1.397947,0.03941753,-0.03118715,0.05916228,-1.001397,0.2109366,0.575191,0.1710839
0.0289132,0.4812357,1.75171,0.06364649,-0.03492956,0.0605145,-1.005356,0.2248506,0.6258386,0.1729241
0.0239289,1.092756,1.108035,-0.6406718,-0.03033953,0.05965194,-1.001016,0.2509991,0.6523526,0.1575935
0.0239169,0.8215375,1.347009,-0.4388126,-0.02757069,0.06049932,-0.9980345,0.2706477,0.6845689,0.1470985
0.024934,0.3116894,3.019776,-0.03201786,-0.03227603,0.06038636,-1.002628,0.2784194,0.759864,0.1463002
0.0279525,0.7654256,2.78655,-0.9032968,-0.02869214,0.0567595,-1.005551,0.2998149,0.837755,0.1210508
0.0229122,1.527219,1.462517,-0.8237711,-0.02458177,0.05589969,-1.001952,0.3348069,0.8712645,0.1021764
0.0249689,1.142933,1.245293,-0.03228629,-0.02743052,0.05867527,-0.999026,0.3633447,0.9023581,0.1013702
0.023903,0.6824272,1.832321,-0.2381737,-0.02883767,0.05686709,-1.003468,0.3796567,0.9461561,0.09567714
0.0279236,0.8440316,1.802089,-0.4898819,-0.02218571,0.06151383,-1.000046,0.4032251,0.9964769,0.08199787
0.0269665,0.3140149,1.797808,0.488495,-0.02565312,0.05750147,-1.004896,0.411693,1.044958,0.09517087
0.0238991,0.8845949,1.603942,0.1915644,-0.02770883,0.05383154,-1.005192,0.432834,1.08329,0.09974909
0.0249674,1.736313,1.695971,-1.147775,-0.02578247,0.05223438,-1.00236,0.4761853,1.125634,0.07109214
0.0299579,1.020777,2.789873,-0.9666926,-0.01983063,0.05579556,-1.001405,0.5067656,1.209213,0.04213206
0.0269547,0.8333178,2.115544,-0.2260775,-0.02136298,0.05276114,-1.005122,0.5292274,1.266237,0.03603821
0.0278994,1.437845,2.357112,-0.5804438,-0.02137586,0.05055063,-1.003176,0.5693424,1.331999,0.01984417
0.0279365,1.526676,3.472107,-0.3140677,-0.01445689,0.05655853,-1.002315,0.6119924,1.428998,0.01107022
0.0329144,1.743032,2.037316,0.8254821,-0.01710531,0.05338566,-1.00433,0.6693633,1.496055,0.03824047
0.0289567,1.908259,1.942087,0.5429026,-0.016169,0.05165305,-1.000163,0.7246202,1.552291,0.05396114
0.0249669,1.33273,2.841125,0.3261703,-0.01287885,0.04958587,-0.9991567,0.7578943,1.623225,0.0621046
0.0278899,0.5577424,4.821805,0.1738309,-0.01209935,0.05022987,-1.003678,0.7734497,1.757705,0.06695273
0.0229728,0.6425472,4.509719,-0.0379204,-0.008576597,0.05097156,-1.00265,0.7882107,1.861305,0.06608159
0.0249312,0.8554881,2.921635,0.4635823,-0.008925579,0.0491445,-1.003524,0.8095391,1.934145,0.07763925
0.0249482,1.008328,4.490476,0.397076,-0.008137738,0.04771318,-1.00806,0.834695,2.046175,0.08754559
0.031891,1.276825,7.794179,-0.4990147,-0.001253812,0.04856021,-1.002209,0.8754143,2.294739,0.07163151
0.0279338,0.6660777,6.073529,0.7850881,0.005096053,0.04480001,-1.001545,0.8940203,2.464396,0.09356201
0.0249348,0.1457395,6.577995,1.298471,-0.0007148217,0.04125086,-1.004214,0.8976543,2.628417,0.1259391
0.0269615,0.1112215,8.450581,0.10062,0.004981644,0.04529352,-1.002401,0.900653,2.856257,0.128652
0.0229421,0.4512194,6.92428,0.04866905,0.01439862,0.04510685,-1.004617,0.9110049,3.015115,0.1297686
0.0248943,1.330507,3.619493,1.038851,0.009266671,0.0438542,-1.003339,0.944127,3.105219,0.15563
0.0259689,1.253073,3.70898,0.1263384,0.01083897,0.04507713,-1.002576,0.9766679,3.201538,0.1589109
0.024895,-0.4190871,9.024457,-0.860915,0.01932499,0.04887831,-0.9992598,0.9662347,3.426201,0.1374784
0.0259637,-1.049566,9.197652,0.413717,0.02487417,0.05089787,-1.00543,0.938984,3.665006,0.14822
0.0249,0.01572298,7.317432,1.152955,0.02398384,0.05087192,-1.002131,0.9393755,3.84721,0.1769286
0.0219741,0.05153204,7.680737,0.5788395,0.02530964,0.05172506,-1.001006,0.9405079,4.015988,0.1896481
0.0229393,-0.3672476,8.704023,-0.1626493,0.02924353,0.05102724,-1.003537,0.9320835,4.215652,0.185917
0.0229424,0.1067872,8.647103,-0.1780829,0.0373025,0.05021273,-1.004057,0.9345334,4.414037,0.1818314
0.0239371,0.3621645,7.447362,0.7225887,0.03886641,0.04641326,-1.000755,0.9432026,4.592306,0.1991281
0.0219741,-0.190157,8.540089,0.9108743,0.04171444,0.04449386,-1.003921,0.939024,4.779966,0.2191437
0.0239027,-0.04114792,9.370378,0.4850396,0.04341501,0.04143807,-1.002205,0.9380405,5.003943,0.2307375
0.0249698,0.6959487,6.379388,0.6698207,0.04851186,0.04058916,-0.9995747,0.9554182,5.163236,0.2474627
0.0259281,0.2213213,5.220616,0.5668512,0.04830508,0.03914201,-1.002406,0.9611566,5.298596,0.2621601
0.0219438,0.1689435,7.076872,-0.1032991,0.05184484,0.0434428,-1.004172,0.9648639,5.45389,0.2598934
0.0289224,1.14584,7.637688,-0.5014349,0.05890607,0.04677129,-1.004186,0.9980043,5.67479,0.2453907
0.0239373,1.892048,5.868526,-0.0001605172,0.06301832,0.04713634,-1.001191,1.043295,5.815267,0.2453868
0.0229715,1.341882,4.10232,0.8245579,0.06246815,0.04538326,-0.9949589,1.07412,5.909503,0.2643282
0.0248995,-1.253346,6.778679,1.236402,0.06166555,0.04859201,-1.000708,1.042912,6.078289,0.2951139
0.0229382,-1.762552,9.152776,0.5230353,0.06586656,0.04888829,-1.00568,1.002483,6.288237,0.3071114
0.025912,0.003427215,8.98238,-0.0329256,0.07281139,0.04610088,-1.004021,1.002571,6.520988,0.3062582
0.0258973,0.7078919,8.897351,0.08672652,0.07896687,0.04376488,-0.9973433,1.020904,6.751405,0.3085042
0.0239667,-0.5033494,7.739731,1.579593,0.08200619,0.04646501,-0.9974103,1.00884,6.936901,0.3463619
0.0268948,-0.8366067,6.53148,1.958711,0.07963131,0.04404538,-1.002359,0.9863398,7.112564,0.399041
0.0249606,-0.5855086,8.172709,0.828017,0.08413248,0.04307988,-1.000962,0.9717252,7.31656,0.4197088
0.0239543,-0.8308619,9.19032,0.6483821,0.0916352,0.04540358,-0.9964423,0.9518225,7.536707,0.4352404
0.023892,-0.7121744,7.746573,1.544104,0.09277127,0.04530936,-0.9998614,0.9348072,7.721788,0.4721321
0.0229752,0.5424491,5.37517,1.555279,0.09257016,0.04313138,-1.002943,0.94727,7.845284,0.507865
0.0248954,1.477022,6.331645,0.1317943,0.1000334,0.04714448,-0.99547,0.9840411,8.002913,0.511146
0.0249338,0.9021475,5.656007,0.4619848,0.101446,0.05201525,-0.9926,1.006535,8.143938,0.522665
0.0269677,0.4142824,1.539542,1.15112,0.09911291,0.04325743,-0.9990628,1.017707,8.185456,0.5537081
0.0238973,0.7306233,1.039302,0.604728,0.1004332,0.04006891,-0.9960043,1.035167,8.210293,0.5681595
0.0219169,-0.3339828,7.833823,0.2972678,0.1059066,0.04975228,-0.9980773,1.027847,8.381986,0.5746747
0.0229663,-0.4132352,10.30805,0.471338,0.106028,0.05158808,-0.998676,1.018357,8.618724,0.5854995
0.0219413,0.5327032,6.134692,0.3086601,0.1122367,0.04414452,-0.9949745,1.030045,8.753327,0.5922719
0.0219387,0.09898891,3.329598,0.757444,0.1180856,0.03890574,-0.9926105,1.032217,8.826374,0.6088893
0.024896,-0.6048325,1.425403,1.854343,0.1115327,0.04232239,-0.9968343,1.017159,8.861861,0.655055
0.0289222,-0.06433564,2.838562,0.6250747,0.11037,0.04173936,-1.001755,1.015298,8.943958,0.6731335
0.0309537,0.5084425,5.733631,-0.2448247,0.1211368,0.04271441,-0.9941405,1.031036,9.121435,0.6655552
0.0278899,-0.2773674,4.915955,0.5533427,0.1194305,0.04686808,-0.9957262,1.0233,9.258541,0.6809879
0.0299191,-0.1028996,1.792927,0.4156301,0.1254032,0.04591403,-0.9950472,1.020222,9.312184,0.6934232
0.0229087,0.08370646,0.6925923,1.062093,0.1228604,0.04579118,-0.9966725,1.022139,9.328051,0.7177543
0.0259663,0.3057744,0.5234584,0.6004022,0.1180937,0.04772155,-0.996472,1.030079,9.341643,0.7333446
0.0249292,0.6990901,0.2322244,-0.531579,0.1238367,0.04493936,-0.9964213,1.047507,9.347432,0.7200927
0.0249638,0.3039573,0.05113041,0.06781279,0.1260126,0.04261246,-0.9938368,1.055095,9.348708,0.7217856
0.0299175,-0.5307977,4.084922,0.4328192,0.1212024,0.04434488,-1.000625,1.039215,9.470919,0.7347345
0.0269277,0.6387414,3.082128,-0.3198737,0.1280731,0.04273641,-0.9927076,1.056415,9.553913,0.726121
0.026894,0.2856239,0.5932124,0.4641674,0.1283478,0.03981913,-0.9944405,1.064096,9.569867,0.7386043
0.0239699,-0.05204033,0.1368329,1.01314,0.1243387,0.04311447,-0.9970406,1.062849,9.573147,0.7628891
0.0239264,0.3562463,0.3813434,0.5778769,0.1238257,0.04395372,-0.9950799,1.071373,9.582271,0.7767156
0.0229387,0.02269993,0.8025361,-0.02474489,0.1250015,0.04466702,-0.9913833,1.071893,9.600679,0.776148
0.0239104,-0.9910137,6.218212,-0.4905142,0.1297136,0.0459585,-0.9987943,1.048198,9.749359,0.7644196
0.0229384,0.4077077,5.865141,-0.3727977,0.1311809,0.04364228,-0.9983021,1.05755,9.883896,0.7558683
0.02892,0.6334965,2.422147,0.383974,0.1360593,0.0444478,-0.9875729,1.075871,9.953944,0.7669728
0.0279266,-1.291653,-0.1552969,1.176938,0.132379,0.04253345,-0.9959661,1.039799,9.949607,0.7998407
0.0309166,0.1160701,1.53491,-0.3220472,0.1308477,0.04140838,-1.011437,1.043387,9.997061,0.7898841
0.0249674,1.173538,8.063787,-1.857462,0.1369891,0.04547662,-0.9947866,1.072688,10.19839,0.7435081
0.0239017,0.2535013,7.816495,-1.426186,0.1417601,0.04335337,-0.984324,1.078747,10.38522,0.7094198
0.0229377,-0.7044736,1.669235,-0.3752846,0.1449941,0.04218201,-0.9895636,1.062588,10.42351,0.7008117
0.0239711,-0.8920497,-0.7145935,0.8439544,0.1419898,0.04329662,-0.9940052,1.041204,10.40638,0.7210422
0.022938,-0.3739706,-0.9052246,1.498591,0.1391032,0.0420841,-0.9972358,1.032626,10.38561,0.7554169
0.028922,0.9810233,1.290265,0.2334581,0.1355175,0.04717835,-0.9946702,1.060999,10.42293,0.762169
0.0249699,1.185362,1.566095,-1.224904,0.1434815,0.04593937,-0.9864916,1.090598,10.46204,0.7315832
0.0248985,-1.126948,1.623059,-0.402176,0.1378715,0.04395618,-0.9858382,1.062538,10.50245,0.7215697
0.0239613,-2.073126,0.804799,-0.02706548,0.1468893,0.04406562,-0.9961467,1.012864,10.52173,0.7209212
0.0259053,0.349472,-0.2256933,0.7310568,0.1425162,0.04589194,-0.9983937,1.021917,10.51589,0.7398594
0.0219753,1.829691,0.07177632,0.4849478,0.1402436,0.04448927,-0.9909539,1.062125,10.51746,0.7505163
0.0249297,0.3256216,-0.4437003,0.365985,0.1454341,0.04019732,-0.9845462,1.070243,10.5064,0.7596402
0.0209093,-1.827138,-0.2415721,0.9603772,0.1400128,0.04327233,-0.9917005,1.032038,10.50135,0.779721
0.0289217,-1.544983,0.6023194,-0.03587225,0.1422949,0.04296755,-0.9993972,0.9873548,10.51877,0.7786835
0.0248967,0.5797297,0.1766501,0.05472365,0.1461138,0.0464834,-0.993075,1.001788,10.52317,0.780046
0.0239709,0.1191623,-0.4753928,1.021111,0.1433042,0.04291915,-0.9914178,1.004645,10.51177,0.8045229
0.023933,-0.2508688,-0.09873401,0.4071973,0.1342014,0.04119138,-0.99485,0.9986405,10.50941,0.8142684
0.0229386,0.257131,1.559152,-1.808235,0.1400471,0.04623007,-0.9958473,1.004539,10.54518,0.77279
0.0229374,0.8815057,2.995668,-2.453249,0.1428997,0.05219458,-0.991236,1.024758,10.61389,0.7165189
0.0249338,0.4365708,3.774273,-1.746351,0.1512045,0.04379513,-0.9892317,1.035643,10.708,0.6729757
0.0239372,-0.1099344,0.3564556,0.05423227,0.1480426,0.04292972,-0.9897665,1.033012,10.71653,0.6742739
0.0279286,-0.8234675,-1.241889,1.033858,0.1475771,0.04551085,-0.9926962,1.010014,10.68184,0.7031481
0.0249014,-0.3845676,-2.504898,1.824669,0.1483412,0.04320858,-0.9947866,1.000437,10.61947,0.7485849
0.0249333,-0.03351845,-1.200229,2.009191,0.1382591,0.04800933,-0.9892376,0.9996015,10.58954,0.7986807
0.023901,-1.261509,0.5690032,0.159562,0.1374518,0.04632021,-0.9928138,0.9694502,10.60314,0.8024944
0.0219455,-0.494262,1.16954,-1.270771,0.1458129,0.04456297,-0.9982402,0.9586034,10.62881,0.7746067
0.0229129,1.150199,0.5694919,-1.070727,0.1480628,0.04502226,-0.9923259,0.9849578,10.64186,0.7500733
0.0229744,0.7359762,-0.2558728,0.07288712,0.1466625,0.04644922,-0.9875526,1.001866,10.63598,0.7517478
0.0229048,-0.127703,-0.04555526,0.1930959,0.1439607,0.04380676,-0.995939,0.9989414,10.63494,0.7561706
0.0209787,0.6699405,0.4463908,-0.2576271,0.1439183,0.04353636,-0.9920189,1.012996,10.6443,0.7507659
0.0229031,0.483244,0.2582006,-0.4758092,0.1480094,0.04339917,-0.9869444,1.024064,10.65022,0.7398684
0.0279634,-1.312229,-0.09362241,0.8391566,0.1442103,0.04442315,-0.9966671,0.9873693,10.6476,0.7633341
0.0248965,-0.2364287,-0.1257401,0.7697197,0.141899,0.04637425,-0.9979076,0.981483,10.64447,0.7824974
0.0219859,0.5657486,-0.3254633,-0.2522196,0.1424228,0.04608034,-0.9900583,0.9939215,10.63731,0.7769521
0.0229357,-0.2572219,-0.1852448,-0.0556661,0.1452927,0.043807,-0.9950647,0.988022,10.63306,0.7756754
0.0279267,0.8377441,-0.02712603,-0.0761743,0.1399084,0.04499563,-0.9938962,1.011417,10.63231,0.7735481
0.0278877,1.324377,0.09902287,-1.187629,0.1450846,0.04559006,-0.9879455,1.048351,10.63507,0.7404279
0.0269623,-0.293281,0.2903683,0.1485698,0.1485664,0.04381022,-0.9933088,1.040444,10.6429,0.7444336
0.0348991,-0.2551644,0.342602,0.669224,0.1429469,0.04585968,-0.9932405,1.031539,10.65485,0.7677889
0.0259044,0.06276198,0.2855631,-0.1179553,0.1444218,0.04538364,-0.9940838,1.033164,10.66225,0.7647334
0.0258954,1.376152,-0.117396,-0.2964634,0.1441644,0.0450073,-0.9927412,1.0688,10.65921,0.7570564
0.0229382,1.329701,-0.2625093,-0.1483635,0.1460944,0.04218854,-0.9897953,1.099301,10.65319,0.7536532
0.0239292,-0.5596558,-0.04152633,0.07708242,0.1451178,0.04071516,-0.9892045,1.085909,10.65219,0.7554977
0.0229468,-1.901542,0.2424652,0.3424115,0.1454299,0.04136928,-0.9955702,1.042275,10.65776,0.763355
0.0239,-0.6350837,0.1329487,0.5134923,0.1437427,0.04516738,-0.9987515,1.027097,10.66094,0.7756274
0.0229382,1.344733,-0.238376,0.01401282,0.1419894,0.04170551,-0.9934034,1.057942,10.65547,0.7759489
0.0279631,1.200027,0.02644672,-0.5381165,0.1467952,0.04107179,-0.9866074,1.091499,10.65621,0.7609015
0.0278872,-0.8158793,0.1910965,0.2489586,0.1463166,0.04486878,-0.9887935,1.068746,10.66154,0.7678442
0.0269284,-1.216308,0.2270753,0.1593274,0.1431206,0.04552433,-0.997776,1.035993,10.66765,0.7721347
0.0239741,0.5118244,0.01489185,-0.3780124,0.1426063,0.04636276,-0.9956927,1.048264,10.66801,0.7630721
0.0249302,1.330071,0.023587,-0.6980489,0.1455037,0.04317638,-0.9918795,1.081422,10.6686,0.7456696
0.0239357,0.4133745,0.002167553,-0.2247538,0.1456068,0.0427984,-0.9900422,1.091317,10.66865,0.74029
0.0239356,-0.665678,0.01919847,0.1835992,0.1425961,0.04415388,-0.9939919,1.075383,10.66911,0.7446845
0.0229064,-0.4473744,0.1562013,-0.194627,0.1443743,0.04175685,-0.9995028,1.065136,10.67268,0.7402263
0.026961,1.466201,-0.01183522,-0.6189059,0.1445036,0.04487045,-0.9902865,1.104666,10.67237,0.72354
0.0278936,1.010741,0.06791241,-0.7981885,0.1451567,0.03951489,-0.9922767,1.132859,10.67426,0.7012756
0.0249654,0.8845243,-0.08611276,-0.4960407,0.1480449,0.03999412,-0.9889287,1.154942,10.67211,0.6888918
0.0239381,-0.378894,-0.1697885,0.261955,0.1451031,0.04168522,-0.9882174,1.145872,10.66805,0.6951625
0.0248996,-1.477145,0.1270838,0.4041726,0.1443594,0.04174783,-0.9981547,1.109091,10.67121,0.7052262
0.0239342,0.1824835,0.07675729,0.1400254,0.1424608,0.04475717,-0.9930088,1.113459,10.67305,0.7085776
0.0249344,0.7126266,-0.1080264,-0.176999,0.1448839,0.04365705,-0.9911482,1.131228,10.67035,0.7041642
0.0229047,0.07345324,-0.09016322,0.09060826,0.1461203,0.04183707,-0.9920038,1.13291,10.66829,0.7062396
0.027964,-0.08109105,0.0356003,0.2806307,0.1457729,0.04062287,-0.9932422,1.130643,10.66928,0.7140871
0.0268883,-0.2729941,0.1005732,0.02862638,0.147236,0.04173056,-0.9935845,1.123302,10.67199,0.7148569
0.0249327,-0.1721411,-0.04033363,0.8574128,0.1485725,0.04430345,-0.9940408,1.11901,10.67098,0.7362345
0.0239368,0.194204,-0.1968077,1.328148,0.141514,0.04097661,-0.9942722,1.123659,10.66627,0.7680261
0.0249571,0.3821499,-0.713684,0.3228797,0.147054,0.03973577,-0.9874716,1.133196,10.64846,0.7760842
0.0229733,-0.8791004,-1.078318,0.9774611,0.1485148,0.04071974,-0.9875696,1.113,10.62369,0.7985398
0.0239351,-2.18232,-1.019639,1.921472,0.1370121,0.04720374,-0.997471,1.060766,10.59928,0.8445304
0.0229032,-0.3409745,-0.2133756,-0.1563163,0.1436063,0.04638187,-0.9978868,1.052957,10.5944,0.8409503
0.0269667,1.606307,-0.08703368,-0.9239768,0.1448917,0.04476313,-0.9922438,1.096274,10.59205,0.8160337
0.0269177,0.5027334,-0.3349425,0.02702796,0.1448533,0.04143588,-0.9876093,1.109806,10.58303,0.8167612
0.0239083,-0.7408179,-0.04880851,0.585435,0.1436908,0.04183193,-0.9928914,1.092095,10.58187,0.830758
0.0249678,-0.7170839,-0.01983957,0.373619,0.1423512,0.04439695,-0.9939932,1.07419,10.58137,0.8400864
0.0229394,-0.3137965,-0.1170664,0.1176876,0.1425126,0.04270809,-0.9969448,1.066992,10.57868,0.8427861
0.0239017,0.924306,-0.1898665,-0.0980294,0.1437015,0.04220554,-0.9939919,1.089085,10.57415,0.840443
0.0219749,0.5659751,-0.1739424,-0.00936004,0.1427654,0.04374282,-0.9871284,1.101522,10.57032,0.8402373
0.0248984,-1.031245,0.09554618,-0.06844147,0.1437209,0.042462,-0.9958286,1.075845,10.5727,0.8385332
0.0319161,0.7229989,-0.1817911,-0.6918128,0.1428683,0.04050085,-0.9952396,1.098921,10.5669,0.8164533
0.0299212,0.8315305,-0.3612104,-0.317181,0.1440045,0.04192448,-0.988229,1.123801,10.55609,0.8069628
0.0289218,-0.8764737,-0.08578879,0.150232,0.1406415,0.04328653,-0.9934089,1.098452,10.55361,0.8113078
0.0249669,-0.4489312,-0.02510959,-0.3168658,0.1438444,0.04307539,-0.9961906,1.087244,10.55299,0.8033967
0.0278919,0.4127652,0.04889442,0.01157087,0.1442859,0.04512992,-0.9927389,1.098756,10.55435,0.8037195
0.0259306,0.2840832,0.02981607,0.4344517,0.1404045,0.04157636,-0.9934236,1.106123,10.55512,0.814985
0.0239719,0.3533023,-0.07866178,-0.2191658,0.1407666,0.04353369,-0.9937733,1.114592,10.55324,0.8097312
0.0249182,0.4879417,-0.2536613,-0.5443285,0.1431921,0.04182319,-0.991917,1.126751,10.54692,0.7961676
0.0259333,-0.249982,-0.04447938,-0.2351404,0.1438122,0.04195455,-0.9928891,1.120268,10.54576,0.7900696
0.0259631,-0.0717215,-0.02455035,0.02513983,0.1425103,0.03989211,-0.9957385,1.118406,10.54513,0.7907223
0.0318797,0.6994436,-0.1305918,-0.4623877,0.1431855,0.04108499,-0.9910641,1.140704,10.54096,0.7759815
0.0299581,-0.6220594,-0.03478074,0.3518594,0.1438848,0.04339378,-0.9889559,1.122068,10.53992,0.7865226
0.0279229,-0.8533321,0.01506517,0.2644835,0.1394462,0.04402995,-0.9958698,1.098241,10.54034,0.7939077
0.0259317,-0.1932756,-0.02828247,-0.5211447,0.145275,0.04110408,-0.9925095,1.093229,10.53961,0.7803935
0.0239257,-0.09373783,-0.04552608,0.2971296,0.1445645,0.04123601,-0.9944785,1.090986,10.53852,0.7875026
0.024945,0.3906189,-0.1351974,0.6320149,0.1383167,0.04351624,-0.9928226,1.10073,10.53515,0.8032682
0.0289229,0.1247992,-0.07853499,-0.4455864,0.1431704,0.04181007,-0.9899561,1.10434,10.53287,0.7903805
0.0239328,-0.5775028,-0.06474513,-0.2133014,0.1442911,0.04452118,-0.9929882,1.090518,10.53132,0.7852756
0.0269302,0.08695377,-0.08401292,0.1042985,0.1406761,0.0428179,-0.9963535,1.09286,10.52906,0.7880844
0.0279094,1.207558,-0.07751138,-0.4018996,0.141709,0.04094818,-0.9898573,1.126562,10.5269,0.7768677
0.0229205,0.3887862,-0.004929956,-0.1793598,0.1448739,0.04242726,-0.9898085,1.135473,10.52679,0.7727567
0.02596,-0.6373358,0.08738429,0.2870831,0.1424914,0.04122676,-0.9945037,1.118928,10.52906,0.7802094
0.023943,-0.6278924,0.03240379,-0.2538233,0.1414651,0.04535253,-0.9914234,1.103894,10.52983,0.7741321
0.0229416,-1.317417,0.2120939,0.02136717,0.1448876,0.04781999,-0.9929581,1.073671,10.5347,0.7746223
0.0279299,-0.8797776,0.4177453,0.7032145,0.1428842,0.04773048,-0.9992346,1.049099,10.54636,0.7942629
0.0299041,1.374496,-0.09185433,0.1587377,0.1394184,0.03911815,-0.9916139,1.090202,10.54362,0.7990099
0.0279387,0.297211,-0.0172858,-0.4041811,0.1404944,0.03702969,-0.9889185,1.098505,10.54314,0.7877176
0.0239295,-0.631901,0.221067,-0.4345444,0.1435968,0.03927842,-0.9945037,1.083384,10.54843,0.7773191
0.0269153,0.284458,0.1314678,-0.08906097,0.1444241,0.04244804,-0.993246,1.09104,10.55196,0.774922
0.0259046,0.2580344,0.004241422,-0.0916748,0.141872,0.04293148,-0.9942544,1.097725,10.55207,0.7725472
0.0229731,0.4773689,0.07214274,-0.7358691,0.1421996,0.04670357,-0.9921405,1.108691,10.55373,0.755642
0.0239011,0.2108471,0.1481123,-0.6858678,0.1468044,0.0492764,-0.9903507,1.113731,10.55727,0.739249
0.0249709,-0.4333779,0.1368105,0.1387354,0.1426958,0.04866883,-0.9935918,1.102909,10.56069,0.7427133
0.0299195,-0.01053783,0.1703628,0.3940908,0.1445424,0.0467295,-0.9944408,1.102594,10.56578,0.7545043
0.0269129,0.2622073,-0.09597655,0.4682766,0.1431777,0.04169209,-0.9905697,1.10965,10.5632,0.767107
0.0229089,-0.5849976,0.06300285,0.3013202,0.1426956,0.04059204,-0.9907057,1.096249,10.56464,0.7740099
0.0248995,-0.9149926,0.3523313,0.2574726,0.140964,0.04100997,-0.9996721,1.073466,10.57342,0.7804209
0.0249342,1.12516,0.1078352,-0.07023095,0.1442213,0.03965721,-0.9959645,1.101521,10.57611,0.7786698
0.0259296,1.164754,-0.2008504,0.1362425,0.1431484,0.03812561,-0.9866722,1.131723,10.5709,0.7822025
0.0229269,-1.259932,0.1099004,0.08561114,0.1413601,0.03912112,-0.9907321,1.102836,10.57342,0.7841653
0.0299253,-0.7921653,0.1736191,-0.2727137,0.1426072,0.0461186,-0.9956943,1.07913,10.57861,0.7760042
0.0249332,0.05607824,0.1434766,-0.1616121,0.1429457,0.04683794,-0.9934789,1.080529,10.58219,0.7719747
0.0239399,0.4759973,0.1681189,-0.1423085,0.1449111,0.04636572,-0.9945614,1.091924,10.58622,0.7685678
0.0229349,0.6149912,0.003166756,0.2018452,0.1435119,0.04718147,-0.9896697,1.106029,10.58629,0.7731971
0.0269184,-0.450807,-0.1221464,0.3778385,0.1437492,0.04644436,-0.9888139,1.093894,10.583,0.7833679
0.0259453,-1.335992,0.07962536,0.3727767,0.1445595,0.0455161,-0.9955521,1.059231,10.58506,0.7930397
0.021941,-0.4484757,-0.0001741843,0.3474076,0.1407844,0.04452343,-0.9957275,1.049391,10.58506,0.8006622
0.0249705,0.5717602,-0.1638138,-0.3508099,0.1421045,0.03900969,-0.9918271,1.063668,10.58097,0.7919023
0.0258924,0.3278978,-0.07491108,-0.6027773,0.1446435,0.03974211,-0.990075,1.072158,10.57903,0.7762949
0.0239669,-0.3285294,0.07436891,0.01446396,0.1434822,0.03879284,-0.9949988,1.064284,10.58081,0.7766416
0.0258978,0.1252973,0.08608644,-0.02630636,0.1422573,0.03878412,-0.9945235,1.067529,10.58304,0.7759603
0.0229721,0.5537083,-0.06218537,-0.3504948,0.1459636,0.0443854,-0.9897817,1.080249,10.58161,0.7679088
0.0239357,-0.1273747,0.04773738,0.1946459,0.1442829,0.04451625,-0.9922529,1.0772,10.58276,0.7725677
0.0229386,-0.5166872,0.1578053,0.3355818,0.1410104,0.04524796,-0.9943715,1.065348,10.58638,0.7802655
0.0239701,-0.06702919,0.2044291,-0.2444221,0.1423241,0.04841895,-0.9929852,1.063742,10.59128,0.7744067
0.0219553,0.1101173,0.08560781,-0.4091446,0.1470906,0.04856881,-0.9939067,1.066159,10.59316,0.7654238
0.0249195,0.4404092,0.06895281,0.2208062,0.144417,0.04758349,-0.9944364,1.077134,10.59488,0.7709262
0.0268944,0.8800092,0.1294484,0.2119233,0.142927,0.04303303,-0.990441,1.100801,10.59836,0.7766258
0.0249321,0.04091869,0.3188589,0.1030514,0.1445403,0.04183328,-0.9925134,1.101822,10.60631,0.779195
0.0249334,-0.03641051,0.4312752,0.1430766,0.1428847,0.04148977,-0.9970713,1.100914,10.61706,0.7827624
0.0229787,1.062261,0.2883332,-0.1233296,0.1437153,0.04147964,-0.9949774,1.125323,10.62369,0.7799284
0.0239611,1.402153,0.4483777,-0.5140763,0.1450051,0.04010833,-0.9898229,1.15892,10.63443,0.7676106
0.0298952,0.3080463,0.562999,-0.005373649,0.1455029,0.03999417,-0.9906757,1.168129,10.65126,0.76745
0.0279618,-0.5098603,4.15442,-0.423402,0.1440949,0.03940923,-0.9954774,1.153873,10.76743,0.7556109
0.0318782,0.7526619,4.019341,-1.031407,0.1533225,0.0434644,-0.9931307,1.177866,10.89556,0.7227315
0.0309171,1.013382,2.681592,-0.01172175,0.1515756,0.04282097,-0.9893565,1.209197,10.97846,0.7223691
0.0249319,-0.09430006,3.744606,0.6651945,0.1535733,0.03906414,-0.9921774,1.206846,11.07182,0.7389536
0.0249686,-1.096766,7.254253,1.119457,0.1553514,0.04332451,-0.9890619,1.179461,11.25295,0.766905
0.0239288,-1.376454,7.027024,1.22763,0.1553788,0.04529907,-0.9922349,1.146524,11.4211,0.7962807
0.0249413,0.140932,4.277301,0.5625361,0.1566154,0.04274499,-0.9928504,1.150039,11.52778,0.8103111
0.0209099,1.211913,1.79858,-0.09726922,0.1604878,0.03907302,-0.9887835,1.17538,11.56539,0.8082772
0.0239,0.6896915,0.9347707,0.1223704,0.1610956,0.03785087,-0.9881717,1.191864,11.58773,0.8112019
0.0269265,-0.2172203,2.927482,0.4394637,0.1584485,0.04079745,-0.9924738,1.186015,11.66656,0.8230351
0.0249695,-0.3826973,8.234109,-0.2064764,0.1636526,0.04495756,-0.9902979,1.176459,11.87216,0.8178794
0.0249349,0.2697614,8.117603,-0.5651721,0.1678053,0.04032974,-0.9891762,1.183186,12.07457,0.8037869
0.0229391,0.9718994,7.026089,-0.551073,0.174371,0.03949065,-0.9870182,1.20548,12.23574,0.7911458
0.0248961,0.4315187,6.671164,-0.1185936,0.1733397,0.04251199,-0.9830874,1.216223,12.40183,0.7881933
0.0299196,-0.231959,6.82476,0.2303006,0.1753804,0.04294188,-0.9912723,1.209283,12.60602,0.7950838
0.0219551,0.420985,7.349728,-0.313069,0.1797306,0.04208069,-0.9873028,1.218526,12.76739,0.7882103
0.0249566,0.1964001,8.267896,-0.5906715,0.1874913,0.03988615,-0.982443,1.223428,12.97372,0.7734691
0.0248948,-0.6913179,9.059054,0.07407039,0.189082,0.04332288,-0.9841159,1.206217,13.19925,0.7753131
0.030918,-0.3223099,7.356937,0.280324,0.1898625,0.04200953,-0.988038,1.196252,13.42671,0.7839801
0.0259574,0.566113,8.160801,-0.9060899,0.1955979,0.04044647,-0.9877338,1.210947,13.63854,0.7604604
0.0259,1.001377,8.646795,-0.662567,0.2010421,0.04081177,-0.9838651,1.236883,13.86249,0.7432999
0.0279521,0.9411491,7.85196,0.0206614,0.2025743,0.03711552,-0.9777431,1.26319,14.08197,0.7438774
0.0229388,0.1379121,7.304648,-0.04821078,0.2051506,0.03872708,-0.9796619,1.266353,14.24953,0.7427715
0.0249742,-0.4012867,8.635815,-0.3106472,0.211641,0.04489096,-0.9841982,1.256331,14.46521,0.7350134
0.0209032,0.3210053,6.965123,-0.07313252,0.2128208,0.04597379,-0.9809893,1.263041,14.6108,0.7334847
0.0269617,0.342052,4.346879,0.3648455,0.2159561,0.04058209,-0.9758402,1.272264,14.728,0.7433215
0.0288875,0.4084926,5.068972,0.6912306,0.2104329,0.03865137,-0.9830302,1.284064,14.87443,0.7632895
0.0249663,0.7962477,9.553645,-0.2433675,0.2221716,0.04158647,-0.9757576,1.303943,15.11295,0.7572135
0.0259331,0.05927268,7.504102,0.2702514,0.2245639,0.04034542,-0.9710791,1.30548,15.30755,0.7642219
0.0258933,-0.7682607,4.867818,1.216364,0.224666,0.03967282,-0.9800306,1.285588,15.4336,0.7957176
0.0219791,-0.1454406,5.984782,0.682131,0.2279899,0.03836024,-0.9823282,1.282391,15.56514,0.8107102
0.0238994,0.2800311,10.95257,0.06133514,0.2334106,0.03846664,-0.9762552,1.289084,15.8269,0.812176
0.0319149,-0.4966689,12.12533,0.1865712,0.239434,0.0396728,-0.9699221,1.273232,16.21387,0.8181304
0.0249575,-0.8524789,9.834906,0.3726129,0.2428919,0.03738907,-0.9729602,1.251957,16.45933,0.8274299
0.0289574,-0.266276,9.136827,0.655039,0.2510946,0.03793436,-0.975921,1.244246,16.72391,0.8463981
0.0279228,0.8263932,7.778989,0.8163584,0.2517698,0.0418195,-0.9722086,1.267321,16.94112,0.8691931
0.0269124,0.9204075,4.409763,0.6073601,0.2550082,0.03874208,-0.9661842,1.292092,17.0598,0.8855386
0.0269098,0.3337036,1.74036,0.8150154,0.2548068,0.03631912,-0.9691452,1.301072,17.10663,0.9074705
0.0229666,-0.1617571,3.178754,0.3788198,0.2544311,0.04316448,-0.9706961,1.297356,17.17963,0.9161707
0.0209482,-0.5971368,5.223588,-0.1251933,0.2594195,0.04538256,-0.9703748,1.284847,17.28906,0.9135482
0.0219449,-0.226083,5.51842,-0.3227357,0.2578738,0.04295197,-0.9731072,1.279886,17.41016,0.9064658
0.0239367,0.5855206,4.966236,-0.5569124,0.2648578,0.03705576,-0.9628889,1.293902,17.52904,0.8931351
0.0268938,-0.2715214,1.202524,0.7153264,0.2642,0.03526152,-0.9689156,1.286599,17.56138,0.9123729
0.0229445,-0.116913,1.035832,1.115169,0.2608472,0.03614018,-0.974834,1.283917,17.58514,0.93796
0.0229028,1.554847,1.236642,0.2706392,0.2628425,0.03720385,-0.9681832,1.319527,17.61347,0.9441584
0.0229664,1.456798,0.91088,-0.1926797,0.2656051,0.03657892,-0.9641089,1.352984,17.63439,0.9397332
0.0219478,0.3939209,0.5479806,0.1741007,0.2675886,0.03293597,-0.9657034,1.36163,17.64641,0.9435543
0.0239278,-0.9074489,6.300609,0.3955866,0.2658257,0.03774048,-0.9734141,1.339917,17.79717,0.9530199
0.0229601,-0.5707985,12.31779,-0.392883,0.2712286,0.0402835,-0.966589,1.326811,18.07999,0.9439992
0.0249551,-0.1425852,8.066808,0.259919,0.2761502,0.0431955,-0.9605027,1.323253,18.2813,0.9504855
0.0279036,0.01972104,2.687039,0.5210957,0.2797482,0.03945477,-0.9646524,1.323803,18.35628,0.965026
0.023974,0.7368532,0.4242903,0.07940111,0.2781577,0.0387103,-0.9639414,1.341468,18.36645,0.9669295
0.0318785,0.2845799,0.4311602,0.02557469,0.2777845,0.04017278,-0.9638132,1.35054,18.38019,0.9677448
0.0349415,-0.03133824,0.238478,-0.07719915,0.2756248,0.03712498,-0.9659444,1.349445,18.38853,0.9650473
0.0268935,-0.09753462,5.468997,-0.8205236,0.2845303,0.03569815,-0.9656007,1.346822,18.53561,0.9429805
0.0249585,0.5061702,5.360474,-0.0874336,0.286677,0.0359234,-0.9612828,1.359455,18.6694,0.9407983
0.0249094,0.200774,2.011413,0.7174023,0.280928,0.03747827,-0.9603614,1.364457,18.7195,0.9586684
0.0239699,-0.2127254,0.2773917,-0.06421135,0.2827854,0.03591254,-0.9623109,1.359358,18.72615,0.9571293
0.0269657,-0.2738438,0.3166592,-0.1020307,0.2854694,0.03665944,-0.9626407,1.351973,18.73469,0.9543779
0.0249293,-0.7730893,5.535648,-0.06574462,0.2839437,0.03840163,-0.9686536,1.332701,18.87269,0.952739
0.0259312,-0.1930916,6.388731,-0.4998023,0.2898154,0.04191443,-0.9604678,1.327693,19.03835,0.9397785
0.0249242,0.676026,1.618618,-0.1814861,0.2912581,0.04166369,-0.9584907,1.344543,19.0787,0.9352551
0.0229478,0.4373897,-0.1473425,0.127201,0.2910212,0.03958646,-0.9583853,1.35458,19.07532,0.9381741
0.0249188,-0.3339358,0.1314462,0.2352696,0.2908011,0.037397,-0.9597514,1.346259,19.07859,0.9440367
0.0229185,-0.7188423,0.6324151,0.3596763,0.2897121,0.03898813,-0.9611021,1.329784,19.09308,0.95228
0.026953,-0.4746199,0.43337,0.3217832,0.2893762,0.03729135,-0.9632017,1.316991,19.10476,0.960953
0.0269042,0.8624295,0.1498063,0.01749258,0.2890154,0.03398871,-0.9624934,1.340194,19.1088,0.9614236
0.022977,1.10326,0.663363,-0.2688807,0.2882463,0.03481948,-0.9594326,1.365544,19.12404,0.9552456
0.0249334,-0.4004851,4.38893,-0.4997772,0.2886257,0.0365425,-0.9612548,1.355559,19.23347,0.9427844
0.0219753,-0.294788,4.1936,-0.4588879,0.2942185,0.03704683,-0.9598349,1.349081,19.32562,0.9327002
0.024898,0.6270025,0.8774344,-0.4361478,0.2937049,0.03702907,-0.9575123,1.364692,19.34747,0.921841
0.0239789,0.1390418,0.5405848,-0.3410477,0.2974393,0.03971033,-0.9542613,1.368026,19.36043,0.9136631
0.0248908,-1.26608,-0.3933159,0.5688424,0.2947719,0.04093143,-0.956124,1.336512,19.35064,0.9278221
0.0239367,-1.360724,-0.3297855,0.08081017,0.2912465,0.03756909,-0.9669769,1.303941,19.34275,0.9297564
0.0269273,0.06218546,4.195725,-0.7699389,0.3000422,0.04451968,-0.9597124,1.305615,19.45573,0.909024
0.0309501,-0.3665988,3.700308,0.1327778,0.2961372,0.03972812,-0.9578317,1.294269,19.57025,0.9131335
0.0269336,0.2477128,0.09068713,-0.1991148,0.2947271,0.03596015,-0.9613071,1.300941,19.57269,0.9077706
0.024896,0.8313825,-0.1560028,-0.5797616,0.3014793,0.03447568,-0.9537579,1.321639,19.56881,0.8933369
0.022975,-0.521163,0.6729202,0.3213495,0.2967463,0.03618158,-0.9565005,1.309665,19.58427,0.9007199
0.0248953,-0.8154976,4.556252,-0.7659699,0.29502,0.04272142,-0.9681212,1.289363,19.6977,0.8816508
0.0209788,0.8467516,6.895577,-2.550647,0.3012297,0.03997792,-0.9551939,1.307127,19.84236,0.8281413
0.022935,1.572709,2.014698,-1.857714,0.3119179,0.03253481,-0.948496,1.343197,19.88857,0.7855347
0.0249295,-0.9990241,-0.9299486,0.6067463,0.3037988,0.03828108,-0.9552969,1.318292,19.86539,0.8006606
0.030949,-0.7894559,-0.4255183,0.795383,0.3041209,0.040165,-0.9630024,1.293859,19.85222,0.8252769
0.0269279,0.5180959,1.226994,0.8334055,0.3049248,0.04136252,-0.9589393,1.30781,19.88526,0.8477187
0.0229051,-0.2104258,2.346148,1.163453,0.3029127,0.04229599,-0.9538091,1.30299,19.939,0.8743677
0.0249335,-0.9821518,0.644577,0.3797509,0.3020975,0.0395008,-0.9562899,1.278502,19.95507,0.8838362
0.0249333,-0.847168,-0.1542877,-0.1344943,0.3058982,0.03989702,-0.9582021,1.257379,19.95122,0.8804829
0.0229741,0.03930954,0.5211419,0.1509873,0.3077442,0.03844682,-0.9591702,1.258282,19.96319,0.8839517
0.0249323,1.069544,0.3626914,0.9116687,0.3043943,0.03913179,-0.9543032,1.284948,19.97224,0.9066817
0.0239022,0.03560056,0.03260255,0.690765,0.3010721,0.03799789,-0.951287,1.285799,19.97302,0.9231924
0.0279274,-1.590241,-0.1361394,-0.4083136,0.3043336,0.03708791,-0.9590986,1.241388,19.96922,0.9117893
0.0289219,0.2008856,0.08492295,-0.5598882,0.3014349,0.04125254,-0.9631501,1.247198,19.97167,0.8955963
0.0239365,1.926745,0.3348217,-0.7014477,0.3081662,0.04061195,-0.9540019,1.293318,19.97969,0.8788061
0.0229716,0.261871,-0.1938045,0.8567188,0.3047003,0.04215666,-0.9499884,1.299333,19.97523,0.8984863
0.0238978,-1.454113,0.2517357,0.5169621,0.2980878,0.04022596,-0.9579272,1.264583,19.98125,0.9108405
0.0229387,-0.5595831,0.6835573,-1.160874,0.3075615,0.03929,-0.9759597,1.251747,19.99693,0.8842116
0.0239631,-0.2371174,4.776014,-1.247521,0.3139172,0.04395331,-0.9568507,1.246065,20.11138,0.8543171
0.0279221,0.806232,1.927389,0.2345462,0.3086621,0.04061905,-0.9547313,1.268577,20.1652,0.8608661
0.0259309,0.6323521,0.1976744,0.5245786,0.30512,0.03790772,-0.9533222,1.284974,20.17032,0.8744689
0.0239675,-0.6065353,-0.2732161,-0.02088479,0.3088664,0.03692501,-0.9498512,1.270437,20.16377,0.8739684
0.0229402,-2.152888,-0.556748,0.4262524,0.3100123,0.0387947,-0.95485,1.221049,20.151,0.8837467
0.025948,-1.33888,-0.3318481,0.9319647,0.3012787,0.04367878,-0.9609289,1.186308,20.14239,0.9079293
0.0219328,0.2774706,0.9067132,-0.5116801,0.3046983,0.03941393,-0.9598135,1.192394,20.16228,0.8967067
0.0289058,1.195454,6.876917,-2.415148,0.3059451,0.04095362,-0.9518202,1.226949,20.36106,0.8268949
0.028959,1.213692,6.78836,-3.745183,0.3128484,0.04071098,-0.9473251,1.262097,20.55764,0.7184382
0.0339189,0.02197995,0.7981334,-1.840928,0.3231034,0.04137529,-0.9484214,1.262842,20.58471,0.655996
0.0289178,-1.470702,-1.953011,1.499304,0.3187135,0.04465998,-0.9496779,1.220313,20.52824,0.6993525
0.0289071,-1.244464,-2.538202,2.987562,0.3133569,0.03908553,-0.9595879,1.184339,20.45486,0.7857143
0.0259046,0.2358624,-0.9008445,1.812998,0.3079486,0.04104313,-0.9455438,1.190449,20.43153,0.8326793
0.0249707,-1.676088,-0.3525668,0.1366317,0.3135846,0.04365394,-0.9487667,1.148596,20.42272,0.836091
0.0269243,-1.927317,-0.6917477,0.1593791,0.3095991,0.04189694,-0.9626786,1.096704,20.4041,0.8403822
0.0229398,0.8106731,-0.6987619,-0.5193004,0.3116325,0.04163743,-0.9589784,1.115301,20.38807,0.8284696
0.0259215,1.533022,-0.5150389,-0.7600524,0.3132264,0.03937386,-0.9479426,1.155039,20.37472,0.8087679
0.0299295,-0.7669135,-0.2029991,-0.2712319,0.3116965,0.04148064,-0.9537078,1.132085,20.36864,0.80065
0.0269182,-0.6163601,-0.2380176,-0.2136893,0.3132996,0.04284451,-0.9557627,1.115494,20.36224,0.7948979
0.0229514,0.3584751,-0.2061026,-0.01611591,0.3125977,0.04151315,-0.9579868,1.123722,20.35751,0.7945279
0.0229286,1.462436,-0.3010204,0.2587798,0.3113029,0.04195173,-0.9513804,1.157253,20.3506,0.8004614
0.0239455,0.5746574,-0.1991346,0.1001668,0.3112927,0.04280218,-0.9507617,1.171014,20.34583,0.80286
0.0239476,-0.6204826,-0.04535446,0.3418145,0.3117959,0.0426913,-0.9521047,1.156155,20.34475,0.8110456
0.0228931,-0.5291636,0.131487,0.4623536,0.3103004,0.04200424,-0.9599726,1.14404,20.34776,0.8216303
0.0229383,1.345156,0.1968442,0.1241454,0.3113697,0.04125781,-0.9571455,1.174896,20.35227,0.824478
0.0249344,2.038916,0.007368862,0.166107,0.3128769,0.03938207,-0.9494177,1.225735,20.35246,0.8286197
0.0289486,-0.217854,-0.09083985,0.8817343,0.3121719,0.03780409,-0.9512759,1.219429,20.34983,0.8541447
0.0239115,-1.008304,-0.06870641,0.7950212,0.3082066,0.03867839,-0.9569566,1.195319,20.34818,0.8731548
0.0229801,-0.032163,0.1180123,-0.2223815,0.3119635,0.04014954,-0.9553072,1.194579,20.3509,0.8680445
0.024917,0.6192248,-0.05907207,0.2086389,0.3148909,0.03967347,-0.9551523,1.210009,20.34942,0.8732432
0.0229474,0.6539513,-0.2196223,1.195881,0.3100875,0.04060262,-0.9512819,1.225015,20.34439,0.9006855
0.0249331,-0.1311377,-0.07291845,1.168028,0.3090011,0.03950312,-0.9519156,1.221746,20.34257,0.9298081
0.0219443,-0.7490401,0.09171807,0.4982136,0.3113347,0.04013534,-0.9535989,1.205308,20.34458,0.940741
0.0248954,-0.6830618,0.09478244,0.09356663,0.3098959,0.04283583,-0.9567848,1.188303,20.34694,0.9430704
0.0339425,0.4991953,0.30524,-0.2632344,0.3139045,0.04100869,-0.9546648,1.205247,20.3573,0.9341355
0.0288934,0.08687647,0.4181726,0.6744522,0.313134,0.04049251,-0.9510004,1.207757,20.36938,0.9536227
0.0279578,-0.4465048,0.1819697,0.7333024,0.3073347,0.03915305,-0.955493,1.195274,20.37447,0.9741242
0.0278912,0.1991438,0.03197131,-0.2630168,0.3119191,0.04036745,-0.9513838,1.200829,20.37536,0.9667884
0.0239728,-0.2597803,0.04808256,0.01737089,0.3136369,0.04148279,-0.9527035,1.194601,20.37651,0.9672048
0.023936,-0.2800472,0.0567591,0.08811816,0.3100634,0.0376018,-0.9590253,1.187898,20.37787,0.969314
0.0239345,1.134377,0.2120472,-0.3957593,0.3135365,0.03917015,-0.9538239,1.215048,20.38295,0.9598417
0.0259321,0.9062104,-0.007378959,0.1124251,0.3128921,0.04000311,-0.9510067,1.238548,20.38276,0.9627571
0.0288873,-0.5403093,-0.02515273,0.3204905,0.3082821,0.03938516,-0.9530283,1.22294,20.38203,0.9720152
0.0279262,-0.4790532,-0.01148311,-0.5466816,0.3095093,0.0395176,-0.953748,1.209562,20.38171,0.9567485
0.0239641,-0.3314254,0.03855108,-1.038884,0.3152142,0.04283107,-0.9524299,1.20162,20.38263,0.9318526
0.0249056,-0.5107624,0.05281756,-0.04730018,0.31319,0.04383042,-0.9572281,1.188899,20.38395,0.9306746
0.0239698,0.9182837,0.07072883,-0.002335002,0.3089316,0.04136982,-0.957297,1.21091,20.38564,0.9306186
0.0229362,1.848943,0.1193429,-0.9238285,0.3105569,0.04145032,-0.949922,1.253318,20.38838,0.9094295
0.0209068,0.9618856,0.0740723,-1.172928,0.3132668,0.04049961,-0.9519793,1.273428,20.38993,0.8849073
0.0239376,0.6437223,-0.04614185,-0.6642444,0.3136811,0.03759353,-0.955304,1.288837,20.38883,0.8690069
0.0269269,0.7187563,-0.07070951,-0.4534886,0.3110843,0.03804991,-0.952268,1.308191,20.38692,0.8567958
0.0249622,0.2633658,-0.1035948,-0.4289637,0.314143,0.03794718,-0.9530895,1.314765,20.38434,0.846088
0.0239081,-0.2211048,0.03075292,0.3102657,0.3136355,0.04013584,-0.9520999,1.309479,20.38507,0.8535058
0.0239633,-0.4529822,0.143817,0.6253347,0.3102692,0.03929311,-0.9561918,1.298624,20.38852,0.8684909
0.0249091,0.6184686,-0.058327,0.2233428,0.3113407,0.04001654,-0.95409,1.314029,20.38706,0.8740542
0.0239341,0.6958492,-0.229381,0.3414547,0.3140059,0.03867172,-0.951983,1.330684,20.38157,0.8822266
0.025969,-0.4042247,-0.03022302,0.1222116,0.3074688,0.03781484,-0.9561136,1.320186,20.38079,0.8854003
0.0259229,0.4299901,-0.03567877,-1.412761,0.3131981,0.04114308,-0.9570014,1.331333,20.37987,0.8487774
0.0278958,1.488151,-0.02999736,-0.9387273,0.3173116,0.04052988,-0.9537686,1.372846,20.37903,0.8225909
0.0269557,0.8746383,0.05846733,1.100109,0.3115783,0.03817826,-0.9528739,1.396423,20.3806,0.8522451
0.0309318,0.1480457,-0.05591312,0.1209517,0.307813,0.03609017,-0.9535471,1.401002,20.37887,0.8559864
0.0289226,-0.1774155,-0.03151827,-1.060174,0.313292,0.03659888,-0.952864,1.395871,20.37796,0.8253233
0.0288869,-0.5759444,0.01436576,0.2422722,0.3130673,0.03893448,-0.9554248,1.379233,20.37838,0.8323218
0.0259561,0.1886832,0.02385332,0.6742586,0.3068739,0.03684206,-0.9571081,1.384131,20.379,0.8498229
0.0229568,1.089108,-0.2220195,-0.6171428,0.3090219,0.03535495,-0.9523118,1.409133,20.3739,0.8356553
0.025933,-0.2013417,-0.3085305,-1.036529,0.3146905,0.03717808,-0.9472045,1.403912,20.3659,0.808775
0.0298831,-2.139509,-0.2751924,0.3553321,0.3144001,0.04077081,-0.9552733,1.339977,20.35768,0.8193935
0.0249711,-1.794311,-0.05009994,1.327216,0.3100257,0.04088313,-0.9567966,1.295171,20.35642,0.8525355
0.0238993,0.1632542,0.06307518,0.6236699,0.308952,0.03832281,-0.9580532,1.299073,20.35793,0.8674408
0.0239367,1.361512,-0.0578713,-0.3500807,0.309825,0.04083503,-0.94969,1.331663,20.35655,0.859061
0.021931,-0.03328753,-0.04268642,-0.7349455,0.3127586,0.03913901,-0.949666,1.330933,20.35561,0.8429429
0.0239453,-0.8402755,0.03021137,-0.04569016,0.3126821,0.04002253,-0.9540736,1.310812,20.35633,0.8418489
0.0279227,-0.3875341,0.003927256,0.09224507,0.3101505,0.03880508,-0.9563192,1.299991,20.35644,0.8444246
0.0239415,0.5084265,-0.01578858,-0.3636216,0.3112525,0.03905741,-0.9567943,1.312164,20.35606,0.835719
0.027922,1.127222,0.008152963,-0.1081122,0.3131436,0.03878507,-0.9512573,1.343638,20.35629,0.8327003
0.0278932,-0.3082745,0.02748033,0.3907886,0.3103468,0.03779839,-0.9516658,1.335039,20.35706,0.8436006
0.0239579,-0.8822613,-0.01920388,-0.08487414,0.308318,0.0392844,-0.9562156,1.313902,20.3566,0.8415672
0.0249351,0.03047353,-0.1877313,-0.8115405,0.3154854,0.0394222,-0.9536759,1.314662,20.35192,0.8213313
0.0229123,0.09209002,-0.1558419,-0.01942969,0.3145096,0.03843876,-0.9533268,1.316772,20.34835,0.8208861
0.0249638,-0.345897,-0.01421667,0.7654411,0.310851,0.03878948,-0.9534915,1.308137,20.34799,0.8399944
0.0229452,-0.6617904,0.05001221,0.2039065,0.3092669,0.03915028,-0.9537535,1.292952,20.34914,0.8446731
0.0259191,-0.6975292,-0.003838184,-0.3510099,0.311105,0.03965332,-0.9547082,1.274873,20.34904,0.8355752
0.0279014,0.1730694,-0.1379015,-0.02921461,0.3103828,0.03965579,-0.955575,1.279702,20.34519,0.8347601
0.0239698,0.5292218,0.03624217,-0.0397394,0.3095016,0.03804447,-0.9525325,1.292387,20.34606,0.8338075
0.0229037,-0.1396186,0.2119362,-0.2182322,0.3127905,0.04001487,-0.9528465,1.289189,20.35092,0.8288092
0.0239499,-0.4427608,0.07786381,0.09999766,0.3118524,0.03880942,-0.9558081,1.278585,20.35278,0.8312041
0.0239729,0.2322354,0.005562973,0.2004507,0.3110809,0.03988353,-0.9526231,1.284152,20.35291,0.8360095
0.0238987,0.08542345,0.0584271,0.1458709,0.3128102,0.03917016,-0.9543231,1.286194,20.35431,0.8394956
0.0229712,0.3711745,0.1230084,0.2366296,0.3114705,0.04075611,-0.9550639,1.29472,20.35714,0.8449312
0.0239038,0.7125887,-0.06073733,-0.0090961,0.3090125,0.04073374,-0.9533779,1.311754,20.35568,0.8447138
0.024935,0.4259058,-0.4867119,-0.4877063,0.3125302,0.03865781,-0.9508979,1.322374,20.34355,0.8325529
0.0299267,-0.9390021,-0.3478858,-0.1275767,0.3116798,0.03987969,-0.9516352,1.294273,20.33314,0.8287349
0.0298896,-1.308563,0.005643098,0.1715604,0.3136013,0.03896454,-0.9595857,1.25516,20.33331,0.8338627
0.0279341,0.170564,-0.03612749,0.6295122,0.3076935,0.03988469,-0.9551159,1.259925,20.3323,0.8514476
0.0299187,0.4998769,-0.06209647,-0.8517067,0.3077118,0.03940622,-0.9565899,1.27488,20.33044,0.8259656
0.0269287,0.9415392,0.1332404,-1.441212,0.3162144,0.03771064,-0.9528208,1.300235,20.33403,0.7871557
0.0239701,-0.1013708,0.02952763,0.6795447,0.3144441,0.03950056,-0.9478043,1.297805,20.33473,0.8034444
0.0269299,-1.701787,-0.06267426,1.286001,0.3067506,0.03953296,-0.9579491,1.251976,20.33305,0.8380764
0.0299071,-0.02076201,0.2541861,-0.5576196,0.3117259,0.04162076,-0.9564032,1.251355,20.34065,0.8213996
0.0259064,1.21073,0.1506435,-0.6244283,0.31302,0.04123099,-0.9519773,1.282721,20.34455,0.8052229
0.0239747,0.7826912,-0.0798224,0.1153595,0.3120675,0.03818126,-0.9529906,1.301485,20.34264,0.8079886
0.0249332,0.07328514,0.03387705,-0.01271205,0.3116661,0.03889241,-0.9500487,1.303313,20.34348,0.8076716
0.0229425,-1.151554,0.1446594,0.1996745,0.3121988,0.04026778,-0.9545681,1.276893,20.3468,0.8122526
0.0229439,-1.143248,0.1045154,0.5244496,0.3094433,0.04016271,-0.9590151,1.250662,20.3492,0.8242856
0.021974,0.9762549,0.001555064,-0.000310815,0.3094175,0.038801,-0.9562056,1.272115,20.34923,0.8242787
0.0249251,1.240691,-0.067867,-0.2674985,0.3122661,0.0396235,-0.9494235,1.303039,20.34754,0.8176113
0.0259018,-0.6430696,0.02216716,0.1197113,0.3115674,0.03853875,-0.9520136,1.286382,20.34812,0.820712
0.0229645,-0.707651,-0.03404458,-0.07598199,0.3109857,0.04002146,-0.9550749,1.270131,20.34733,0.8189672
0.0229009,-0.1527716,-0.00316384,-0.2799881,0.3126727,0.04270905,-0.9541777,1.266633,20.34726,0.8125552
0.0229389,0.07604174,0.1789002,0.2317546,0.3123316,0.04162102,-0.9560281,1.268377,20.35137,0.8178714
0.0239359,0.529112,0.247485,0.4970775,0.3090107,0.03779568,-0.9521724,1.281042,20.35729,0.8297694
0.0319173,-0.1479772,0.006256401,-0.3204826,0.3103668,0.04025798,-0.9543453,1.276319,20.35749,0.8195404
0.022964,-0.1581602,0.01852664,-0.5962653,0.3117473,0.04004277,-0.9577622,1.272687,20.35792,0.8058478
0.0308901,0.5818854,0.3054881,-0.0008903118,0.3127782,0.03866136,-0.9512626,1.290661,20.36735,0.8058203
0.0319513,-0.3962387,0.3230411,0.3221716,0.3117247,0.03684743,-0.9545975,1.278001,20.37767,0.8161141
0.0269252,-0.3342374,0.2945438,0.1429609,0.312802,0.04087843,-0.9541888,1.269002,20.3856,0.8199634
0.0258949,-0.25906,0.4460662,0.2642095,0.3116953,0.04111277,-0.9534652,1.262293,20.39715,0.8268051
0.027924,-0.05297923,0.5839863,0.2031602,0.3113537,0.03880068,-0.9548336,1.260814,20.41346,0.8324781
0.0229664,0.5692776,0.5684521,0.03276273,0.3104081,0.03710118,-0.9569407,1.273888,20.42652,0.8332306
0.0249055,0.6950775,0.4025889,-0.788,0.3130153,0.0390254,-0.9507669,1.291199,20.43654,0.813605
0.0239747,-0.3666362,0.720394,-0.4172751,0.3146253,0.03965926,-0.9531944,1.282409,20.45382,0.803601
0.0279137,-0.2508348,0.9699076,0.5092875,0.3157319,0.03979198,-0.9540381,1.275408,20.48089,0.8178171
0.0269012,-0.6517878,4.539489,0.8015458,0.312316,0.040755,-0.9543182,1.257874,20.60301,0.8393796
0.0239698,-0.9237102,6.941911,0.3134412,0.3175698,0.03968298,-0.9547519,1.235733,20.7694,0.8468927
0.025928,-0.02788983,7.027526,0.07291052,0.3178141,0.03992905,-0.9548699,1.235009,20.95161,0.8487831
0.0239313,0.5922586,9.346591,-0.9662253,0.3220227,0.04223723,-0.9502673,1.249183,21.17529,0.8256601
0.0239461,0.4133177,10.84823,-2.250247,0.3251329,0.04037922,-0.9441134,1.25908,21.43506,0.7717755
0.0238993,-0.001829339,9.713508,-2.782699,0.3356657,0.03702673,-0.9468276,1.259037,21.66721,0.7052709
0.0209429,0.1144214,7.394357,-1.410596,0.3394157,0.03886082,-0.9446855,1.261433,21.82207,0.675729
0.0259317,0.4643231,4.962069,-0.08037335,0.3374657,0.03921998,-0.9449519,1.273474,21.95074,0.6736448
0.0249318,0.537271,3.922235,-0.06608816,0.3364814,0.03969984,-0.9443476,1.286869,22.04853,0.6719971
0.0299585,0.1060524,6.995765,-0.9565746,0.3396773,0.0402187,-0.9467567,1.290046,22.25811,0.6433395
0.0238992,0.4302334,7.490996,-1.248715,0.3446369,0.03911526,-0.9426589,1.300328,22.43714,0.6134962
0.0239347,0.1294143,7.935523,-0.8926481,0.3490152,0.03802632,-0.9411422,1.303426,22.62708,0.592131
0.0239031,-0.05883392,8.209346,-0.281796,0.35231,0.03987792,-0.9419473,1.302019,22.82331,0.5853952
0.0229374,0.1635369,7.546206,-0.06947163,0.3544783,0.03877016,-0.9391093,1.305771,22.9964,0.5838017
0.0229729,0.4464024,6.484484,0.1280943,0.3560547,0.03864942,-0.9382329,1.316026,23.14536,0.5867444
0.0209303,0.302221,8.422319,-0.1193603,0.3585002,0.03805238,-0.938575,1.322351,23.32164,0.5842461
0.0259642,-0.1158142,11.29724,-0.6123892,0.3620884,0.03863809,-0.9323984,1.319344,23.61497,0.5683459
0.026893,-0.5997804,9.478565,-0.2038278,0.3688854,0.04024,-0.9299756,1.303214,23.86987,0.5628644
0.0219708,-1.195717,8.723622,0.4785052,0.3696747,0.04015563,-0.9351149,1.276944,24.06154,0.5733775
0.0229416,-0.3640968,8.402347,0.0780103,0.3712586,0.03881576,-0.9344919,1.268591,24.2543,0.5751672
0.0229461,0.7693172,9.51194,-1.026271,0.3794862,0.04113862,-0.9293501,1.286243,24.47256,0.5516183
0.0209456,0.5914656,10.13375,-0.7875389,0.3840595,0.04173443,-0.9240195,1.298632,24.68482,0.5351228
0.0219283,-0.1115597,9.100012,0.5715886,0.3842182,0.04175711,-0.927327,1.296186,24.88437,0.5476568
0.02195,-0.1720992,8.778783,0.8132344,0.3850635,0.04077693,-0.9262203,1.292408,25.07706,0.5655073
0.0248987,0.1298914,9.360813,-0.1785656,0.3917048,0.04199074,-0.9206151,1.295642,25.31014,0.5610613
0.0259654,-0.4718973,8.744792,-0.1346087,0.3954149,0.04203823,-0.9252275,1.283389,25.5372,0.5575661
0.0269082,0.3171286,8.028555,0.2454365,0.3978537,0.03972391,-0.9243558,1.291923,25.75323,0.5641704
0.0259284,0.528009,9.484262,-0.2274901,0.4019095,0.03993244,-0.9162149,1.305613,25.99915,0.5582719
0.0268941,-0.1868346,10.18874,0.01882218,0.4075304,0.04020902,-0.9172477,1.300588,26.27316,0.5587781
0.0289222,-0.1059,10.30747,0.5512522,0.4108311,0.03924956,-0.9175819,1.297525,26.57128,0.5747215
0.0229738,0.1736569,11.04231,0.1255394,0.4144503,0.03887505,-0.9138631,1.301515,26.82496,0.5776056
0.024928,0.9746298,9.897703,-0.5188531,0.4189521,0.04011269,-0.9133095,1.325811,27.07169,0.5646716
0.0249116,1.274546,9.263034,-0.2175561,0.4232629,0.0409409,-0.906387,1.357562,27.30245,0.559252
0.0269597,-0.6844581,8.426692,1.46503,0.4321564,0.04048577,-0.9053012,1.339109,27.52963,0.5987487
0.0269235,-0.9492871,7.34587,2.892437,0.4306056,0.04001006,-0.9082652,1.313551,27.72741,0.6766233
0.0268943,0.6709781,3.206483,2.411259,0.4258255,0.03850587,-0.9056371,1.331596,27.81364,0.7414724
0.0239727,1.097946,1.52631,0.4454673,0.4300706,0.0375319,-0.9031405,1.357917,27.85023,0.7521515
0.0239343,-0.1467503,6.156167,-0.1309797,0.4359503,0.03818563,-0.9056386,1.354405,27.99758,0.7490166
0.0229368,0.1194632,7.960388,0.1399152,0.4346221,0.03757582,-0.9066396,1.357145,28.18016,0.7522258
0.0239324,1.562514,5.467908,-0.1674407,0.4383709,0.03634978,-0.9032928,1.394539,28.31102,0.7482185
0.0229415,1.875999,2.916415,-0.1897934,0.4431551,0.03533589,-0.894416,1.437578,28.37793,0.7438644
0.0269286,-0.05300675,0.7132954,0.4600652,0.4420837,0.03522449,-0.8967588,1.43615,28.39714,0.7562533
0.0229609,-1.450609,4.839649,0.3167031,0.4415542,0.0349031,-0.903877,1.402843,28.50826,0.7635251
0.0269645,-0.8829694,8.011249,-0.351853,0.4489062,0.03831019,-0.8971448,1.379034,28.72428,0.7540375
0.029916,-0.3942291,2.723093,0.860975,0.4504872,0.03904891,-0.8969979,1.36724,28.80574,0.7797945
0.0298958,-0.08981466,0.5717586,1.264751,0.4447864,0.03745108,-0.8992847,1.364555,28.82284,0.8176052
0.0269554,0.5021824,0.4817238,-0.08205425,0.4459966,0.03671668,-0.8981718,1.378092,28.83582,0.8153934
0.0229396,0.1098576,0.1899667,-0.665213,0.4492469,0.03744007,-0.8945725,1.380612,28.84018,0.8001336
0.0298862,-0.9006516,-0.2717111,-0.2474168,0.4494227,0.03759549,-0.8994724,1.353695,28.83206,0.7927393
0.027926,-0.2012954,0.2983077,0.1747658,0.4498927,0.03660792,-0.8975123,1.348073,28.84039,0.7976198
0.0279673,-0.8815049,5.793747,0.3811067,0.451819,0.03672395,-0.8952816,1.32342,29.00243,0.8082783
0.0268852,-1.14955,5.26046,0.5797249,0.4510205,0.03687584,-0.9003159,1.292514,29.14386,0.8238643
0.022973,1.05892,1.285281,-0.1431957,0.4527621,0.03634157,-0.8922083,1.316841,29.17338,0.8205746
0.0219438,1.319624,0.1625037,-0.600212,0.4539548,0.03657559,-0.8898633,1.345798,29.17695,0.8074037
0.0229463,-0.8493771,0.2060593,-0.4443667,0.4525505,0.03746132,-0.8955128,1.326308,29.18168,0.7972071
0.0248927,-1.864327,4.748189,-0.6051772,0.4557993,0.03972535,-0.9033026,1.2799,29.29987,0.7821426
0.0259727,0.4604094,5.217228,-0.8220356,0.4598402,0.04090395,-0.8941745,1.291858,29.43538,0.7607921
0.026927,0.9760162,0.9432113,0.1782364,0.4612072,0.03950613,-0.8849742,1.31814,29.46078,0.7655915
0.0229041,-0.6830675,-0.06254733,0.8258021,0.458121,0.03978779,-0.8927322,1.302495,29.45934,0.7845058
0.0229502,-0.4415094,0.1179591,0.3811147,0.4543743,0.04015847,-0.8959623,1.292362,29.46205,0.7932525
0.0249222,0.4303189,0.2925099,-0.680465,0.4593101,0.03989727,-0.8900203,1.303087,29.46934,0.7762938
0.02098,-0.2379557,0.1768162,-0.4236803,0.4613738,0.03990078,-0.8891371,1.298094,29.47305,0.7674049
0.0239358,-0.6930088,-0.002484323,0.4035833,0.4574457,0.03896196,-0.8975267,1.281506,29.47299,0.777065
0.0229406,0.491183,0.3019326,-0.0150378,0.457784,0.03735609,-0.8944691,1.292774,29.47992,0.77672
0.0248954,-0.08909557,5.042823,-0.6866799,0.460558,0.03759472,-0.891737,1.290556,29.60546,0.7596248
0.0259658,-0.7355614,5.382067,-0.5966854,0.4657649,0.04004328,-0.8892053,1.271457,29.74521,0.7441314
0.0268917,-0.02000452,0.7818609,0.3539093,0.4623754,0.03918661,-0.8912137,1.270919,29.76624,0.7536487
0.0259329,0.8289867,-0.275181,-0.1329872,0.4627014,0.03928654,-0.8876542,1.292417,29.7591,0.7502
0.0289562,-0.6500731,-0.531171,-0.07705384,0.4628355,0.04100765,-0.8893569,1.273593,29.74372,0.7479688
0.0229405,-0.8855883,-0.7178041,-0.02920186,0.4624066,0.04091866,-0.8946335,1.253277,29.72725,0.7472989
0.0219071,0.2901031,-0.3467807,-0.1483413,0.4634323,0.04051305,-0.8880046,1.259633,29.71966,0.7440492
0.0249689,-0.2518026,0.04961124,0.1579345,0.4637748,0.03988871,-0.8856758,1.253345,29.72089,0.7479926
0.0268918,-1.630339,0.383557,0.0958134,0.460333,0.0393183,-0.8940569,1.209503,29.73121,0.7505692
0.0289506,-0.2899399,0.4898081,-0.493652,0.4633636,0.03944333,-0.8924256,1.201109,29.74539,0.7362777
0.0249394,0.6071158,0.1347433,-0.2772065,0.4656037,0.04099803,-0.8860136,1.21625,29.74875,0.7293643
0.0268939,-0.6578777,-0.3593566,0.6329961,0.4610461,0.03955506,-0.8924531,1.198557,29.73909,0.7463881
0.0239373,0.2550576,-0.2443767,0.01084285,0.4597431,0.03944996,-0.8959018,1.204662,29.73324,0.7466477
0.0219746,1.392583,-0.05394297,-0.4411999,0.4649755,0.0404947,-0.884186,1.235264,29.73205,0.7369525
0.0219414,-0.4052778,-0.3284642,0.140841,0.4638257,0.03960164,-0.8791806,1.226372,29.72484,0.7400427
0.0239689,-3.12297,-0.1816742,0.3345203,0.463006,0.04079274,-0.8936464,1.151517,29.72049,0.7480608
0.0219074,-1.540916,0.1141054,-0.1129115,0.4621922,0.04203677,-0.8976928,1.11776,29.72299,0.7455872
0.027928,1.545349,0.04034135,-0.4190156,0.4645441,0.04272928,-0.8900596,1.160918,29.72412,0.733885
0.0319113,0.9701371,-0.01336341,0.4596431,0.4630641,0.04075474,-0.8878849,1.191877,29.72369,0.7485528
0.0269629,0.1444515,0.1448606,-0.05982176,0.4591886,0.0401417,-0.8901427,1.195772,29.7276,0.7469398
0.0268943,0.07727355,0.1137248,-0.8704265,0.465051,0.04102975,-0.8911684,1.19785,29.73066,0.7235304
0.0229725,0.2475184,-0.05141917,-0.1459855,0.4654088,0.04065941,-0.8903085,1.203536,29.72948,0.7201767
0.0239002,0.8006021,0.1420319,0.7437654,0.4614113,0.03869969,-0.8920868,1.22267,29.73287,0.7379528
0.0249003,0.9897646,0.2319757,0.5726323,0.4625548,0.03865921,-0.8852088,1.247316,29.73865,0.7522116
0.025951,-1.460837,-0.05880516,0.3848264,0.4601159,0.03962741,-0.8855996,1.209406,29.73712,0.7621982
0.0269279,-1.729585,-0.1289259,-0.3739151,0.4618247,0.04007616,-0.8968528,1.162832,29.73365,0.7521294
0.0279585,2.086658,0.1331286,-0.7481869,0.466,0.04052858,-0.8885862,1.221171,29.73737,0.7312112
0.0239003,1.798004,0.07950184,0.1821468,0.4654246,0.03998397,-0.8805068,1.264144,29.73927,0.7355646
0.0229371,-1.777038,0.1069127,0.8789259,0.4625084,0.04071157,-0.8817631,1.223384,29.74172,0.7557246
0.0249351,-2.463662,0.3385329,0.1282534,0.4608885,0.04144171,-0.9008998,1.161952,29.75016,0.7589226
0.0239725,0.4473132,0.03591339,-0.711982,0.4659137,0.04116138,-0.892015,1.172676,29.75102,0.7418547
0.0248971,1.017127,-0.1077919,-0.005086025,0.4659731,0.0411242,-0.886376,1.197999,29.74834,0.7417281
0.0329129,-0.06276576,-0.04335602,0.6070233,0.4612907,0.03869997,-0.8922108,1.195933,29.74691,0.7617069
0.0349063,0.6294262,-0.2368032,-0.5618019,0.4623298,0.03903666,-0.8870476,1.217904,29.73865,0.7420965
0.0279249,-0.5713078,-0.3197775,-0.4524016,0.4647878,0.03905902,-0.8887336,1.201951,29.72972,0.7294633
0.0259062,-1.2052,-0.07221785,0.2617371,0.4622569,0.03967766,-0.891702,1.170729,29.72785,0.7362439
0.0249657,-0.3401916,0.2238168,0.1173156,0.4631195,0.04017634,-0.8926687,1.162236,29.73343,0.7391728
0.0239018,0.1759663,0.2255586,0.2551538,0.4638135,0.04040162,-0.8893491,1.166442,29.73883,0.7452714
0.022976,0.1077452,0.08832461,0.3450068,0.4606795,0.03906348,-0.8922158,1.168917,29.74086,0.7531983
0.0229045,0.5641621,0.2341684,-0.2254605,0.4612869,0.04065567,-0.8925651,1.181839,29.74622,0.7480342
0.0239668,1.25994,0.03856691,-0.6131285,0.4644324,0.04016511,-0.8900787,1.212036,29.74714,0.7333394
0.0288927,0.06944346,-0.2036871,0.08005397,0.464265,0.0392805,-0.8856741,1.214042,29.74126,0.7356524
0.0309538,-1.209308,0.28607,0.3017092,0.4627419,0.04004525,-0.891571,1.176609,29.75012,0.7449914
0.0248967,-0.6886939,0.6737971,0.3059667,0.4636106,0.03915226,-0.9035791,1.159463,29.76689,0.752609
0.0229828,-0.5400065,4.904581,0.04484646,0.4706337,0.0393252,-0.8880478,1.147052,29.87961,0.7536396
0.0249017,0.4962311,1.104502,0.3498898,0.4655264,0.03869934,-0.8892174,1.159409,29.90712,0.7623525
0.0229732,0.5111024,-0.1334135,0.06129673,0.46318,0.03989501,-0.8870313,1.171151,29.90405,0.7637606
0.0249309,-0.3780155,-0.2166662,-0.3823736,0.4687642,0.04051649,-0.8848752,1.161727,29.89865,0.7542277
0.0289282,-1.29639,-0.3842217,0.3426617,0.4682148,0.04275299,-0.891118,1.124224,29.88754,0.7641403
0.0298827,-0.3441603,-0.3021791,1.085473,0.4650697,0.04177533,-0.8931242,1.11394,29.87851,0.7965772
0.0229756,0.6950747,-0.1511793,0.6988515,0.4642723,0.04222184,-0.8873698,1.12991,29.87503,0.8126337
0.0248968,-0.07009491,-0.06209385,0.1758545,0.4632715,0.04171277,-0.8849339,1.128165,29.87349,0.8170119
0.0219738,-1.105463,0.3038062,-0.5269306,0.4633408,0.04004141,-0.8905831,1.103873,29.88016,0.8054332
0.0239272,-0.757401,0.6096849,-1.094173,0.4687181,0.04264211,-0.8924609,1.085751,29.89475,0.7792527
0.0209537,0.02046712,0.01989518,-0.4826835,0.4684538,0.04262872,-0.8906256,1.08618,29.89517,0.7691387
0.0239349,0.6814651,-0.5043634,0.4291998,0.4650338,0.04089701,-0.889576,1.102491,29.88309,0.7794116
0.024902,0.6736681,0.1127434,0.3127789,0.4635388,0.03928051,-0.8861731,1.119266,29.8859,0.7872004
0.0289656,-0.8258046,0.8853149,-0.2180014,0.4634825,0.04108215,-0.8817487,1.095346,29.91155,0.7808859
0.0258872,-1.991186,3.706264,-0.154782,0.467609,0.04311978,-0.8916131,1.0438,30.00749,0.776879
0.024932,0.1508332,0.335814,0.274662,0.4674736,0.04274398,-0.890269,1.047561,30.01587,0.7837269
0.0219398,0.9913549,-0.2401832,0.3859956,0.4662064,0.04173076,-0.8856335,1.069311,30.0106,0.7921956
0.0219419,-0.1931381,-0.03509389,0.1699885,0.4660516,0.04109851,-0.8824527,1.065073,30.00982,0.7959254
0.0259289,-0.9837139,-0.2718255,-0.1682305,0.467225,0.04322957,-0.8900235,1.039567,30.00278,0.7915634
0.0219094,-0.1386628,-0.2893387,-0.1826271,0.4695392,0.04397237,-0.8899903,1.036528,29.99644,0.7875621
0.0229725,0.3782046,-0.1723829,0.5883577,0.4657468,0.04150083,-0.8880922,1.045217,29.99248,0.8010782
0.0258967,0.4076401,-0.0703507,0.3376131,0.4642891,0.04039642,-0.8882402,1.055773,29.99066,0.8098212
0.0249708,0.3354222,-0.0263267,-0.4295551,0.4673212,0.0418684,-0.8872125,1.064149,29.99,0.7990949
0.0259182,-0.2782136,-0.3384925,-0.1722784,0.4691218,0.04222639,-0.8847365,1.056938,29.98122,0.7946298
0.025903,-0.9275067,-0.5047968,0.09980451,0.4647998,0.04114664,-0.8905577,1.032913,29.96815,0.797215
0.0229657,-0.3126474,0.05800375,0.01991495,0.4670986,0.04298158,-0.8895364,1.025733,29.96948,0.7976723
0.0248925,-0.1289194,0.144455,0.258386,0.4655,0.04186515,-0.8879701,1.022524,29.97308,0.8041042
0.0229735,-0.3894829,-0.08669224,0.2030788,0.4666006,0.04248371,-0.8884428,1.013576,29.97108,0.8087696
0.0229385,-0.01833248,-0.1943924,-0.1617797,0.4636937,0.04223798,-0.890196,1.013155,29.96663,0.8050587
0.0229053,0.5564014,-0.1064257,-0.7573882,0.4675546,0.04345403,-0.8868309,1.0259,29.96419,0.7877104
0.0259354,-0.09159286,-0.03080485,-0.3023198,0.4680279,0.04369216,-0.8855978,1.023525,29.96339,0.7798696
0.0269276,-0.8899719,-0.1405993,0.2702804,0.4672191,0.04334836,-0.8895324,0.9995597,29.9596,0.7871476
0.0259506,-0.1243997,-0.1337941,-0.1002497,0.4640797,0.04298601,-0.8922698,0.9963315,29.95613,0.7845461
0.0249708,1.111071,-0.1180817,-0.7144118,0.4679571,0.04213167,-0.8896545,1.024076,29.95318,0.7667066
0.025898,1.024281,-0.08874948,0.02713622,0.4698507,0.0439412,-0.8850836,1.050603,29.95088,0.7674094
0.0219758,-0.2674087,-0.2341398,0.5883182,0.4675199,0.04159744,-0.8830443,1.044726,29.94574,0.7803382
0.0248995,-1.473256,-0.6288547,0.05218446,0.4635812,0.04261022,-0.8911753,1.008043,29.93008,0.7816376
0.0239373,-0.614334,-0.4180802,-0.587941,0.4666595,0.0423969,-0.8937135,0.9933372,29.92007,0.7675639
0.0299557,1.500413,0.02443801,0.1958921,0.4679614,0.04274616,-0.890263,1.038283,29.9208,0.773432
0.0309194,0.6053211,-0.2218062,0.7646348,0.4628794,0.04145058,-0.8824889,1.056999,29.91395,0.797074
0.0249235,-0.983902,-0.3342741,-0.3222011,0.4633434,0.04212329,-0.8915493,1.032477,29.90561,0.7890437
0.0318886,0.5971071,-0.1780379,-1.292496,0.4677228,0.0431154,-0.8908763,1.051518,29.89994,0.7478278
0.0289583,0.5016092,-0.287095,-0.006963765,0.4666732,0.04392295,-0.8845095,1.066044,29.89162,0.7476261
0.0259303,-0.8245857,-0.5066093,0.5098392,0.4602662,0.04307154,-0.8893738,1.044662,29.87849,0.7608464
0.026955,0.09831631,-0.4035008,-0.3896286,0.4631351,0.04238849,-0.8948596,1.047312,29.86761,0.750344
0.0279494,0.9994909,0.04228218,-0.7154889,0.4681445,0.04332237,-0.884986,1.075247,29.86879,0.7303465
0.0279012,-0.6829054,-0.1364536,0.4687306,0.4653677,0.0430821,-0.887473,1.056193,29.86499,0.7434247
0.0229376,-0.758419,-0.07697701,0.3238158,0.4624926,0.04273314,-0.8920458,1.038797,29.86322,0.7508522
0.0239367,0.4237286,-0.1612491,-0.4638674,0.4653871,0.04199242,-0.8888286,1.04894,29.85936,0.7397488
0.022903,0.007869028,-0.06135303,-0.2269295,0.4676732,0.04259593,-0.8862225,1.04912,29.85795,0.7345514
0.0239718,-0.7569276,-0.04370069,0.4232032,0.4633572,0.04274352,-0.8930158,1.030975,29.85691,0.7446964
0.0229384,0.2363803,0.04187334,0.07198215,0.4633331,0.04297373,-0.8909307,1.036397,29.85787,0.7463475
0.0239364,0.8730645,-0.1842906,-0.3993393,0.4648738,0.04258669,-0.886747,1.057295,29.85346,0.7367888
0.0269629,-0.2889273,-0.247523,-0.484457,0.4649008,0.04162401,-0.8888371,1.049505,29.84678,0.7237265
0.0239504,-0.2319054,-0.01832306,-0.2334704,0.4655275,0.04383971,-0.8911432,1.043951,29.84634,0.7181348
0.0239072,0.3251715,0.1306056,0.1501466,0.4650157,0.04235456,-0.888463,1.051725,29.84947,0.7217243
0.0229135,0.0375843,-0.1209394,0.2201557,0.4640148,0.04221255,-0.8861471,1.052586,29.84669,0.7267689
0.024933,-0.6731902,-0.2386951,-0.2312906,0.4633704,0.04116061,-0.8936394,1.035801,29.84074,0.7210021
0.0219756,0.5062587,0.02196616,-0.4859205,0.4651861,0.04079352,-0.8922715,1.046926,29.84123,0.7103237
0.0259319,0.71029,-0.1030434,-0.126063,0.4646273,0.04050373,-0.8857837,1.065346,29.83855,0.7070546
0.0249355,-0.3544266,-0.3691343,0.06956302,0.4636708,0.04185699,-0.8879924,1.056508,29.82935,0.7087892
0.0229043,-0.3800618,-0.1472056,-0.06153154,0.4645677,0.04262114,-0.8921439,1.047803,29.82598,0.7073799
0.0269645,0.6081459,0.1820713,0.06232018,0.4656288,0.04321592,-0.8890625,1.064201,29.83089,0.7090603
0.0268918,-0.382318,0.1271203,0.5386324,0.4643815,0.04368321,-0.8867454,1.05392,29.8343,0.7235451
0.0229292,-1.174292,0.0996119,0.5371795,0.4622408,0.04505235,-0.8921554,1.026994,29.83659,0.7358623
0.0259384,0.6379999,-0.09348638,-0.4,0.4632292,0.04457495,-0.8931273,1.043543,29.83416,0.7254869
0.0249328,1.228645,-0.0860173,-0.458758,0.4672756,0.04404365,-0.8838884,1.074177,29.83202,0.7140487
0.021946,-0.4336751,-0.1353562,0.393827,0.4661779,0.04342672,-0.8836609,1.064659,29.82905,0.7226917
0.0219445,-1.944623,-0.007093281,0.6970534,0.4619901,0.04064171,-0.8899825,1.021985,29.82889,0.7379881
0.023897,-1.47971,-0.04845321,-0.09828261,0.4647269,0.0421547,-0.8953322,0.9866248,29.82774,0.7356395
0.0279305,0.2071823,-0.111846,-0.3486918,0.4661829,0.04264626,-0.8948207,0.9924115,29.82461,0.7259003
0.0259684,1.59196,0.2312123,0.3220789,0.4634259,0.04075392,-0.8875127,1.033752,29.83062,0.7342642
0.02492,0.8894289,0.1936393,0.3178037,0.463632,0.04134407,-0.8843191,1.055917,29.83544,0.7421839
0.0239449,-1.154262,0.09562216,0.2745652,0.4631733,0.04258317,-0.8873806,1.028278,29.83773,0.7487583
0.0229424,-1.811279,-0.1279247,0.01073853,0.4630021,0.04311549,-0.8941208,0.9867229,29.83479,0.7490047
0.0248955,-0.22849,-0.121059,-0.4177588,0.4639599,0.04482237,-0.8931167,0.9810345,29.83178,0.7386044
0.0219405,0.7572578,0.125601,-0.4700652,0.466341,0.04467592,-0.8878179,0.9976491,29.83454,0.7282909
0.0299519,0.2793369,0.1542137,0.2748845,0.4642521,0.04588088,-0.8868544,1.006016,29.83916,0.7365242
0.0259001,-0.3958257,0.02994133,0.1105763,0.4618591,0.04357266,-0.8902091,0.9957638,29.83993,0.7393882
0.0239364,0.08188941,0.09895675,-0.6909115,0.4644031,0.04406339,-0.8888263,0.997724,29.8423,0.7228503
0.0259662,0.01135254,0.02917623,-0.6662948,0.4670888,0.044077,-0.8890387,0.9980188,29.84306,0.7055491
0.0238997,-0.2040065,0.113032,0.1766137,0.4641829,0.04224097,-0.8903126,0.9931431,29.84576,0.7097701
0.0229747,0.3226144,0.212551,0.2815775,0.4629752,0.0406518,-0.8908285,1.000555,29.85064,0.7162393
0.0219406,0.5136314,0.04705982,-0.08865999,0.4636588,0.0411155,-0.8866494,1.011824,29.85168,0.714294
0.0239263,-0.1896668,-0.170358,-0.4141865,0.464486,0.04465218,-0.8855117,1.007286,29.8476,0.7043841
0.0249079,-0.9622248,-0.1217678,-0.356273,0.4655196,0.04579295,-0.8911298,0.9833193,29.84457,0.6955101
0.0229748,0.02035495,0.0608492,-0.01582415,0.4656767,0.04483573,-0.8939537,0.9837869,29.84596,0.6951466
0.0258961,1.427359,0.1568027,0.2391116,0.4644034,0.04332928,-0.8885862,1.02075,29.85003,0.7013386
0.0259603,0.4738493,0.0312539,0.1787477,0.4621837,0.04061246,-0.8854451,1.033051,29.85084,0.7059789
0.0258981,-0.5252946,0.006229666,-0.5673142,0.4648134,0.04115484,-0.8917832,1.019447,29.851,0.6912866
0.027888,0.1168974,0.1267955,-0.4962247,0.4665006,0.04176219,-0.890165,1.022707,29.85453,0.6774479
0.0249335,0.4391529,0.1440152,0.2465638,0.4655026,0.04357997,-0.8888163,1.033657,29.85813,0.6835955
0.0229331,0.4018853,0.1381129,0.5022576,0.4640328,0.04381432,-0.8883423,1.042873,29.86129,0.6951138
0.0279414,0.226506,0.1652726,0.149017,0.4637771,0.04405082,-0.8873631,1.049202,29.86591,0.6992776
0.0258974,-0.41482,-0.05444343,-0.04350979,0.4646615,0.04419557,-0.8901706,1.038459,29.8645,0.6981508
0.0339107,0.2852039,0.108864,0.04596993,0.4645493,0.04175348,-0.8901889,1.048131,29.86819,0.6997097
0.0329408,-0.000651276,0.1930712,0.2682313,0.4639015,0.04209485,-0.8868848,1.048109,29.87455,0.7085454
0.0278949,-0.7614474,0.07235215,0.1096032,0.4644229,0.04187255,-0.8898218,1.026869,29.87657,0.7116028
0.0269296,0.3325835,-0.1818851,-0.461008,0.4638596,0.04079655,-0.893636,1.035825,29.87167,0.6991881
0.0249423,1.203106,-0.2474207,-0.5854538,0.4661925,0.04282372,-0.8847681,1.065833,29.8655,0.6845855
0.0249211,-0.1249357,-0.1532224,0.08058617,0.4662084,0.04258858,-0.8861178,1.06272,29.86168,0.6865938
0.0239451,-1.115066,-0.003823799,0.311335,0.4634434,0.04419095,-0.8903081,1.036019,29.86159,0.6940488
0.0258965,-0.8451204,0.01284777,0.06614526,0.4639326,0.04382689,-0.8903046,1.014134,29.86192,0.6957617
0.0279631,0.1795612,-0.2785281,-0.4715016,0.4657884,0.04434059,-0.8928527,1.019155,29.85413,0.682577
0.0229369,1.002283,-0.212945,-0.3511338,0.4658779,0.0439544,-0.8897898,1.042144,29.84925,0.6745231
0.0249257,0.5159168,-0.055718,0.1073458,0.4649883,0.04307226,-0.886252,1.055004,29.84786,0.6771988
0.0229325,-0.6128892,0.1216389,0.2386033,0.4635681,0.04247995,-0.8899506,1.040949,29.85065,0.6826705
0.0239108,-0.181374,0.1601689,-0.004896878,0.4639518,0.04175813,-0.8912993,1.036612,29.85448,0.6825535
0.0249684,0.6111943,0.05096093,-0.1690236,0.4646459,0.04198341,-0.8879797,1.051872,29.85575,0.6783332
0.022905,0.09340957,-0.01679513,0.2355914,0.4671833,0.04210299,-0.8858641,1.054012,29.85537,0.6837295
0.0229384,-0.7255089,0.04565375,0.9095029,0.4616329,0.04052292,-0.8907232,1.03737,29.85641,0.704592
0.0259578,-0.4116729,0.1043027,-0.1761626,0.4607653,0.04026593,-0.8893871,1.026684,29.85912,0.7000192
0.0249397,-0.2825662,-0.1155778,-1.056955,0.4645378,0.04394923,-0.8899286,1.019637,29.85624,0.673659
0.0229398,0.1222763,-0.1336163,-0.9756536,0.4660272,0.04495043,-0.8926003,1.022442,29.85317,0.6512777
0.0239381,0.825718,-0.1058652,-0.02307336,0.466708,0.04406635,-0.8876951,1.042208,29.85064,0.6507254
0.022904,0.2156389,-0.06295265,0.6157179,0.4640106,0.04392327,-0.8863806,1.047147,29.8492,0.6648278
0.0279229,-0.5854148,0.1124838,0.1378081,0.4618852,0.04248709,-0.8921775,1.0308,29.85234,0.6686758
0.0249335,0.285021,0.06230677,-0.5561306,0.4655348,0.04372173,-0.8917568,1.037907,29.85389,0.6548095
0.0258963,0.6634731,-0.1190802,-0.3570792,0.4649982,0.04332298,-0.8872308,1.055088,29.85081,0.6455625
0.0329389,-0.5535405,-0.06219991,0.229093,0.4638056,0.04137578,-0.8889747,1.036855,29.84876,0.6531085
0.0388633,0.3706388,0.07988171,-0.4240599,0.4655378,0.04262222,-0.8916417,1.05126,29.85186,0.6366282
0.0319498,0.5674888,-0.1147921,0.004245988,0.4663197,0.04356164,-0.8854969,1.069391,29.84819,0.6367638
0.0318753,-0.4838662,-0.06401928,0.1911069,0.4629487,0.04283854,-0.8892202,1.053967,29.84615,0.6428554
0.0329116,-0.5641747,0.0732816,-0.190636,0.4657527,0.04272816,-0.8890643,1.035399,29.84856,0.6365812
0.029885,-0.1582894,-0.132822,0.1027868,0.4643095,0.04346804,-0.8911605,1.030669,29.84459,0.639653
0.037901,0.09845318,0.2137924,0.4344157,0.4652394,0.04466856,-0.8874636,1.0344,29.8527,0.6561178
0.0319502,-0.3711269,0.3039842,0.560137,0.4656317,0.04419665,-0.8896685,1.022543,29.86241,0.6740143
0.0268894,0.5524756,0.07013561,0.4777256,0.4628546,0.04371139,-0.8920346,1.037399,29.8643,0.68686
0.0239705,1.344254,-0.1496148,-0.422839,0.462684,0.04294723,-0.8873841,1.069621,29.86071,0.6767244
0.0268948,-0.2939203,-0.008001852,-0.6683383,0.467163,0.04343682,-0.8845069,1.061716,29.86049,0.6587495
0.0239361,-1.058669,0.2064546,0.1220233,0.4650857,0.04423247,-0.895436,1.036376,29.86544,0.6616703
0.0229733,0.9642565,0.2421746,0.3992884,0.4643531,0.04276017,-0.8948423,1.058528,29.871,0.6708432
0.0239306,2.151918,0.1513594,0.2574431,0.4644911,0.04135116,-0.8847989,1.110024,29.87462,0.677004
0.033946,-0.8610538,-0.1506171,0.0330945,0.4634209,0.04062856,-0.8870233,1.080795,29.86951,0.6781275
0.0288859,-1.152098,0.03627411,-0.4056625,0.465314,0.0420214,-0.8932421,1.047516,29.87056,0.6664096
0.0299516,0.4822331,0.2013313,-0.3434271,0.465278,0.04285626,-0.890295,1.061959,29.87659,0.6561233
0.0308875,0.8283472,0.07086244,-0.03253007,0.4637948,0.0423483,-0.8883553,1.087545,29.87878,0.6551186
0.0279674,0.3104096,0.04416227,-0.1577445,0.4646471,0.04235129,-0.8882223,1.096226,29.88001,0.6507069
0.027961,-0.475391,0.1812743,-0.1339621,0.4663408,0.0440639,-0.887577,1.082934,29.88508,0.6469612
0.0289228,-0.2989562,0.257196,0.1981207,0.4645559,0.04383782,-0.8915227,1.074287,29.89252,0.6526914
0.0339189,1.023539,0.02493748,-0.1033836,0.4645404,0.04297179,-0.8898128,1.109004,29.89336,0.6491847
0.0289542,0.3766614,-0.2355974,-0.09047125,0.4663293,0.04320033,-0.8862348,1.11991,29.88654,0.6465652
0.0279287,-0.6066404,-0.1148699,0.108216,0.4639312,0.04247994,-0.8897011,1.102968,29.88334,0.6495875
0.0289213,-0.3973841,0.161177,-0.1404825,0.4651582,0.04028717,-0.8895786,1.091475,29.888,0.6455246
0.0269289,-0.2009519,0.09286343,-0.02101617,0.4649157,0.04163303,-0.8901852,1.086064,29.8905,0.6449586
0.0348681,0.9489622,0.03814139,-0.1708905,0.4649927,0.04197357,-0.8862595,1.119152,29.89183,0.639
0.0319141,-0.2328698,-0.1207695,-0.1342011,0.4642929,0.04150003,-0.8889679,1.11172,29.88797,0.6347171
0.0419281,0.03800546,0.1048172,-0.4050514,0.465397,0.04224314,-0.8898074,1.113314,29.89237,0.6177341
0.0318785,0.1850109,0.1266062,0.2925801,0.4658702,0.04248127,-0.8885742,1.119212,29.8964,0.6270611
0.0349394,-0.07944491,0.03021481,0.5475523,0.4630642,0.04344701,-0.8888469,1.116436,29.89746,0.6461922
0.029919,-0.2247096,0.05977577,-0.28105,0.4641735,0.04186818,-0.8893346,1.109713,29.89925,0.6377835
