DT,Velocity X,Velocity Y,Velocity Z,Acceleration X,Acceleration Y,Acceleration Z,Angle X,Angle Y,Angle Z
0.0279496,0.7154843,0.1210266,-1.009689,-0.04785198,0.04516268,-1.000471,0.1765994,0.04426202,-0.1523666
0.0278915,0.3552906,0.1782753,-0.1385573,-0.05139237,0.04575646,-1.000387,0.186509,0.04923439,-0.1562312
0.0289248,0.1480583,0.2042213,-0.4286118,-0.05151125,0.05040798,-1.002318,0.1907915,0.05514145,-0.1686287
0.0269253,0.5282049,0.128069,-0.6490372,-0.05356736,0.05089851,-1.004056,0.2050136,0.05858975,-0.1861042
0.0369032,1.675977,0.05791137,-1.094707,-0.04797225,0.04846724,-1.001798,0.2668625,0.06072686,-0.2265024
0.0329376,0.8880485,0.1518573,-0.365774,-0.05150623,0.04306857,-1.000162,0.2961127,0.06572868,-0.2385501
0.0298913,0.04727321,0.2705692,-0.5148855,-0.05012976,0.04113772,-1.00261,0.2975258,0.07381634,-0.2539407
0.0279256,0.749267,0.1590515,-0.4615692,-0.05059258,0.03796891,-1.003741,0.3184495,0.07825795,-0.2668303
0.028922,1.280097,0.1363375,-0.6166373,-0.04978012,0.03941633,-1.000534,0.3554725,0.0822011,-0.2846647
0.0249639,0.3303613,0.1722696,-0.2026125,-0.04846143,0.04271267,-0.9996373,0.3637196,0.08650162,-0.2897227
0.0279191,-0.6552848,0.4690765,0.08462722,-0.05197028,0.04528347,-1.003094,0.3454246,0.09959781,-0.28736
0.0318893,0.1118976,0.7367644,-0.7468224,-0.04868521,0.04786344,-1.003282,0.3489929,0.1230927,-0.3111756
0.029921,0.2965267,0.3299578,-0.4591523,-0.04788595,0.04954763,-0.9989702,0.3578653,0.1329654,-0.3249139
0.029937,-0.08393949,0.3870607,-0.1329205,-0.04686881,0.04700721,-1.001795,0.3553524,0.1445528,-0.3288932
0.032951,0.5850645,0.5017596,0.08730419,-0.05062138,0.04174511,-1.00249,0.3746309,0.1610863,-0.3260164
0.0398949,0.5465885,0.5172119,-0.2397743,-0.04686004,0.03636597,-0.9988036,0.396437,0.1817204,-0.3355822
0.0438818,-0.3750001,1.281385,0.1598534,-0.04696653,0.03759851,-1.000635,0.3799813,0.2379499,-0.3285675
0.0588388,0.5636555,0.6619654,-0.7818972,-0.04830989,0.04077309,-1.00161,0.4131461,0.2768992,-0.3745734
0.0339377,0.2642382,0.6998638,-0.5009147,-0.04516794,0.04590958,-1.000801,0.4221138,0.3006509,-0.3915733
0.0318862,-0.2020248,0.5679417,0.005668139,-0.04565202,0.04701102,-1.001535,0.415672,0.3187604,-0.3913926
0.0279516,-0.1744295,0.5896536,0.1233075,-0.04463651,0.04826321,-1.005559,0.4107964,0.3352422,-0.387946
0.0289369,0.4852189,1.438305,-0.3577588,-0.03995033,0.04738561,-0.9988886,0.4248371,0.3768623,-0.3982984
0.0318795,0.3842695,1.885299,-0.7853798,-0.04221998,0.04201945,-1.001282,0.4370875,0.4369647,-0.4233359
0.0279538,0.2969827,1.44242,-0.3995339,-0.04347818,0.03978791,-0.9970227,0.4453893,0.4772858,-0.4345044
0.0268989,-0.02786112,2.012449,-0.02489625,-0.04740293,0.03970773,-1.006019,0.4446398,0.5314184,-0.4351741
0.0269284,0.1510028,1.867687,-0.5476286,-0.03744444,0.04058395,-1.00246,0.4487061,0.5817122,-0.4499208
0.0269268,-0.4146992,1.209257,1.427041,-0.04085201,0.03543325,-1.001311,0.4375396,0.6142737,-0.4114952
0.0229119,-0.1868554,1.589,1.11795,-0.04810401,0.03446087,-1.006922,0.4332584,0.6506807,-0.3858808
0.0249325,0.6844355,1.40063,-1.062834,-0.04146121,0.03800071,-1.002281,0.450323,0.6856019,-0.4123799
0.0279268,1.240328,3.059603,-1.708502,-0.03832005,0.04130112,-1.000749,0.4849614,0.7710468,-0.4600929
0.0289567,0.5310195,2.210346,-0.416042,-0.0377972,0.04071259,-1.003689,0.500338,0.8350511,-0.4721401
0.0249306,0.8538508,3.430977,-0.2791575,-0.03219816,0.04305628,-1.003482,0.521625,0.9205874,-0.4790997
0.0268905,1.028551,5.443603,-0.2913811,-0.03451473,0.04292386,-1.003511,0.5492833,1.066969,-0.4869351
0.0279525,0.8017132,4.002906,-0.5297515,-0.0273336,0.0427028,-1.002077,0.5716932,1.17886,-0.501743
0.0229605,0.2128876,3.886447,-0.06276419,-0.02831011,0.04122942,-1.001486,0.5765812,1.268095,-0.5031841
0.0269418,-0.1167849,4.044024,0.2547113,-0.02730425,0.04149678,-1.004291,0.5734348,1.377048,-0.4963217
0.0229404,0.6028103,4.561065,0.2604799,-0.0273696,0.03859344,-1.008357,0.5872635,1.481681,-0.4903462
0.0329084,1.628873,4.991412,0.3025261,-0.02311197,0.03212025,-1.00504,0.6408671,1.64594,-0.4803905
0.0269276,1.001794,6.723271,0.1872596,-0.02141608,0.02955112,-1.003076,0.6678429,1.826982,-0.4753481
0.0309326,0.4579203,8.333018,0.2802112,-0.01435961,0.03507946,-1.003442,0.6820076,2.084743,-0.4666804
0.0278838,-0.4622066,8.250194,1.460768,-0.009862308,0.03778284,-1.003001,0.6691195,2.31479,-0.4259487
0.0259311,-0.7506368,11.34873,1.761632,-0.005856419,0.04476496,-1.003762,0.6496547,2.609075,-0.3802676
0.0249692,0.4026887,12.81231,1.544034,0.001716687,0.04786541,-1.005855,0.6597095,2.928988,-0.3417143
0.023967,0.7567407,12.44504,1.992975,0.0002222774,0.04710591,-1.002814,0.6778463,3.227259,-0.2939487
0.025904,-0.3386367,13.28848,1.698063,0.01091426,0.04517187,-0.9984072,0.6690743,3.571484,-0.2499621
0.0319521,-1.866978,14.44052,1.65259,0.01514908,0.04450957,-1.006083,0.6094204,4.032888,-0.1971583
0.0259669,-0.7339379,10.95473,0.819957,0.02298163,0.04137942,-1.007357,0.5903623,4.317349,-0.1758666
0.0269173,0.9075022,9.449286,-0.02755181,0.02452824,0.03592937,-1.012892,0.6147898,4.571698,-0.1766082
0.0269277,1.936979,14.43693,-1.047824,0.03571522,0.03559271,-1.009694,0.6669483,4.960452,-0.2048237
0.0259292,2.243019,15.6318,0.3070699,0.04450892,0.03287458,-0.9988186,0.7251079,5.365772,-0.1968616
0.0239118,1.35276,13.88812,0.9768933,0.04377862,0.02981282,-0.9978679,0.7574549,5.697862,-0.1735024
0.0269299,0.2959349,13.05631,-0.04683258,0.05299519,0.03099744,-1.004489,0.7654244,6.049467,-0.1747635
0.0369,0.7048971,14.97494,-0.3927812,0.06247265,0.03628103,-1.003112,0.7914351,6.602042,-0.1892572
0.0259665,1.11231,12.93704,-0.4328366,0.07335988,0.03933604,-0.9960938,0.8203179,6.937972,-0.2004964
0.0259215,0.9370588,11.61059,-0.0118773,0.07490353,0.03902389,-1.003187,0.8446078,7.238935,-0.2008043
0.0249073,1.566957,14.77915,0.2087176,0.08237503,0.03638452,-1.005075,0.8836365,7.607044,-0.1956057
0.0259748,1.714924,15.91409,0.3162506,0.08462451,0.03390657,-0.998078,0.9281814,8.02041,-0.1873911
0.0239176,0.4654442,15.45728,-0.3006624,0.093979,0.03233606,-0.994175,0.9393137,8.390111,-0.1945823
0.0259322,-0.4232384,18.01903,-1.4185,0.1025985,0.03340326,-1.001908,0.9283382,8.857384,-0.2313671
0.0289126,-0.4877049,21.83102,-1.751894,0.1124426,0.03342685,-0.9987233,0.9142374,9.488575,-0.2820189
0.0289065,-0.9522556,19.63267,-0.3373623,0.128101,0.03308573,-0.9917933,0.886711,10.05609,-0.2917709
0.0269556,-0.9558404,15.15101,1.187666,0.1291461,0.03105167,-0.9973106,0.8609458,10.46449,-0.2597567
0.0259282,0.1883138,13.57968,0.3456392,0.1339424,0.02987345,-1.000447,0.8658284,10.81659,-0.2507949
0.0269323,1.898154,15.36808,-0.7693193,0.1473119,0.0319865,-0.9969604,0.91695,11.23048,-0.2715144
0.0268972,2.164693,14.85187,0.4982477,0.1532895,0.03206363,-0.9861003,0.9751742,11.62996,-0.2581129
0.0239744,1.116249,9.430001,1.088444,0.1514632,0.03095595,-0.9860076,1.001936,11.85604,-0.2320181
0.0298921,0.2943499,7.134976,0.1679213,0.1587357,0.03409413,-0.9939875,1.010734,12.06932,-0.2269986
0.0379233,1.595218,9.648279,0.250292,0.1627287,0.03311415,-0.9907586,1.07123,12.43521,-0.2175067
0.0319149,1.495921,11.36496,-0.4101383,0.1699911,0.03250198,-0.9855262,1.118973,12.79792,-0.2305962
0.0329117,0.1228808,12.29261,-0.8336565,0.1737025,0.02851189,-0.9888181,1.123017,13.20249,-0.2580333
0.0279508,0.172135,14.549,-2.141938,0.1832339,0.02783173,-0.9901778,1.127828,13.60915,-0.3179021
0.0239359,0.2180886,15.25628,-1.669547,0.192798,0.02734296,-0.9835681,1.133048,13.97432,-0.3578643
0.0259051,0.04706944,11.69219,-0.204315,0.1981283,0.02673356,-0.9800752,1.134268,14.27721,-0.3631571
0.0259156,0.2256434,6.9999,0.8756536,0.2024404,0.02836996,-0.9845468,1.140115,14.45862,-0.340464
0.0299216,1.319969,11.10599,0.2036558,0.1979292,0.02622076,-0.994913,1.179611,14.79093,-0.3343703
0.0259287,3.041125,19.02266,-2.39312,0.2142948,0.02812011,-0.9755787,1.258463,15.28416,-0.3964207
0.0269315,1.456321,16.436,-1.42797,0.2244678,0.02885729,-0.9693209,1.297684,15.7268,-0.4348781
0.0239696,-0.5617074,11.94394,0.8337832,0.2286841,0.02940757,-0.9757624,1.28422,16.0131,-0.4148927
0.0259088,-0.5359133,12.16428,1.152891,0.2252472,0.03067571,-0.9852339,1.270335,16.32826,-0.3850226
0.0239212,1.404273,17.11182,-1.223466,0.2413993,0.03193115,-0.9793901,1.303927,16.73759,-0.4142894
0.0249693,1.56706,18.42517,-1.388685,0.2502537,0.03088985,-0.9635996,1.343056,17.19766,-0.4489639
0.0279207,-1.036723,11.49843,1.261523,0.2520907,0.02661956,-0.9627486,1.31411,17.5187,-0.4137413
0.0308822,-2.030242,10.70731,1.082695,0.2741275,0.02720952,-0.9813532,1.251411,17.84937,-0.3803053
0.0269174,0.6243133,14.52361,0.8024154,0.2715107,0.02807029,-0.9656892,1.268216,18.24031,-0.3587064
0.0239102,-0.08199229,11.55843,1.226745,0.2648401,0.02231091,-0.9670359,1.266256,18.51667,-0.3293746
0.0229025,0.603529,3.561846,0.1440051,0.2700703,0.0240393,-0.9663475,1.280078,18.59825,-0.3260766
0.0239345,0.6201744,3.913316,-0.3629777,0.2746242,0.02518602,-0.9704518,1.294922,18.69191,-0.3347643
0.0229038,-0.4128283,14.62844,-0.6709749,0.2831706,0.03041905,-0.9620989,1.285466,19.02696,-0.3501321
0.026927,-0.4496603,14.65445,0.3014742,0.2863735,0.0319211,-0.9654817,1.273358,19.42156,-0.3420143
0.0259635,1.114344,12.60343,0.669711,0.290713,0.03337856,-0.9613738,1.302291,19.74879,-0.3246263
0.0289235,1.796043,8.372543,0.9434547,0.2956824,0.0311797,-0.9577737,1.354239,19.99095,-0.2973383
0.0269275,1.473775,13.27927,-0.1412295,0.2975844,0.02866196,-0.9634065,1.393924,20.34853,-0.3011412
0.025894,0.9624815,19.71064,-1.155477,0.3068431,0.02960341,-0.9517651,1.418846,20.85892,-0.3310612
0.0249598,-0.1156916,12.9702,0.3861603,0.3194655,0.02472854,-0.9444129,1.415959,21.18265,-0.3214227
0.0229172,-0.7304245,9.134697,1.166446,0.3130798,0.01870106,-0.9603447,1.399219,21.39199,-0.294691
0.0309127,2.59873,23.92419,-4.587903,0.3122917,0.01548196,-0.9541251,1.479553,22.13155,-0.4365155
0.0309531,4.006927,30.10899,-2.807744,0.3453004,0.01815144,-0.9290668,1.60358,23.06352,-0.5234239
0.0328769,-0.204447,12.47257,1.527807,0.3502967,0.01212592,-0.9375054,1.596858,23.47358,-0.4731943
0.0359335,0.2528116,12.90683,0.4623271,0.3536858,0.01795042,-0.9482108,1.605943,23.93736,-0.4565812
0.0338764,2.851212,25.65331,-2.20431,0.3760094,0.02390417,-0.9286534,1.702531,24.80641,-0.5312553
0.0369007,0.2055696,18.61278,0.9091322,0.3866806,0.02342604,-0.9228882,1.710117,25.49323,-0.4977077
0.0369397,0.04334043,17.40037,0.9922537,0.3892631,0.02058661,-0.9347664,1.711718,26.136,-0.4610541
0.0358697,1.986464,26.86615,-2.210132,0.416234,0.01616725,-0.9126498,1.782972,27.09968,-0.5403309
0.0359002,-0.4101795,22.25741,0.1957395,0.4281991,0.01737959,-0.9031798,1.768246,27.89872,-0.5333038
0.0399313,-0.3155074,19.94319,-0.3888252,0.4323106,0.02246751,-0.9127783,1.755648,28.69508,-0.5488301
0.0378988,0.8812334,22.67751,-1.23899,0.4529606,0.0247628,-0.8949826,1.789045,29.55453,-0.5957863
0.0329126,-1.27706,18.26415,0.4864677,0.4579695,0.02527998,-0.8958986,1.747014,30.15565,-0.5797754
0.0319511,-0.7371731,25.25681,-1.589496,0.4743743,0.02703139,-0.8910289,1.72346,30.96263,-0.6305615
0.0438446,0.4040773,21.06061,0.5517759,0.4908677,0.02342796,-0.87026,1.741177,31.88602,-0.6063691
0.0388967,-0.7814925,11.74298,1.451648,0.4816312,0.01662597,-0.8818191,1.71078,32.34279,-0.5499048
0.035904,0.0217626,18.06622,-1.575684,0.5095809,0.0226146,-0.8636638,1.711561,32.99144,-0.6064782
0.0368999,-0.08865282,12.06262,0.892935,0.5133365,0.02102561,-0.8608098,1.70829,33.43655,-0.573529
0.0408933,0.3168542,10.38177,0.340855,0.5075556,0.02018676,-0.8671374,1.721247,33.8611,-0.5595903
0.0369034,0.544257,13.9555,-0.8577944,0.5338697,0.02307865,-0.8433848,1.741332,34.3761,-0.5912459
0.0408881,-3.929474,1.212091,3.263894,0.5232676,0.01821408,-0.8534762,1.580663,34.42566,-0.4577914
0.0339078,0.5076205,9.335853,-2.080134,0.528969,0.02130456,-0.8737333,1.597875,34.74222,-0.5283242
0.0448827,0.6276558,22.12449,-1.218356,0.5498491,0.02577143,-0.8334882,1.626046,35.73523,-0.5830073
0.0708108,0.1575919,15.81434,0.08245441,0.5413165,0.02061985,-0.854098,1.637206,36.85506,-0.5771686
0.0528566,-0.7727258,18.43411,-0.7645522,0.5843436,0.02356598,-0.8086905,1.596362,37.82942,-0.6175803
0.0408914,0.1754045,2.090581,1.902645,0.5732505,0.02134021,-0.8304146,1.603535,37.91491,-0.5397785
0.0438821,1.916812,14.40457,-0.6746409,0.5864121,0.01965646,-0.8068537,1.687648,38.54701,-0.5693831
0.0418887,-0.7894969,7.634521,0.4397876,0.5915679,0.021413,-0.8104561,1.654577,38.86681,-0.550961
0.0398925,1.393018,9.775206,-0.9427318,0.5923629,0.02329007,-0.8168075,1.710148,39.25677,-0.5885689
0.0349038,0.521805,17.29245,-1.898797,0.6098694,0.02612638,-0.790711,1.728361,39.86034,-0.6548442
0.0309487,-2.486487,6.836461,1.512189,0.6100793,0.02556819,-0.7984347,1.651408,40.07192,-0.6080438
0.0349109,-0.2415441,4.334837,1.157768,0.6101072,0.02418965,-0.8114371,1.642975,40.22326,-0.5676252
0.0308835,2.118483,12.60203,-0.01676111,0.6187441,0.01917408,-0.7856253,1.708401,40.61245,-0.5681428
0.0368997,-2.056365,1.662872,2.019422,0.6169288,0.01635977,-0.785912,1.632522,40.67381,-0.4936268
0.034908,-1.58638,1.612152,0.7198625,0.6117434,0.01987125,-0.8034794,1.577145,40.73009,-0.4684978
0.0408891,2.130547,1.128904,-0.7059385,0.6244427,0.02064819,-0.7830942,1.664261,40.77625,-0.497363
0.035904,-0.8934927,0.1088187,1.810056,0.6144537,0.01970429,-0.7948672,1.632181,40.78016,-0.4323747
0.0319154,1.830067,1.194729,-0.759409,0.6163667,0.02177028,-0.792133,1.690588,40.81829,-0.4566116
0.0289599,1.601112,1.142834,-0.8862844,0.626609,0.02443419,-0.7818159,1.736956,40.85138,-0.4822783
0.0298848,-0.4200818,0.4005049,1.324584,0.6176954,0.02054483,-0.7905317,1.724402,40.86335,-0.4426934
0.0319152,0.6077,1.278544,-0.465343,0.6263021,0.02128642,-0.786009,1.743797,40.90416,-0.4575449
0.0378987,0.01199525,0.5325965,1.587668,0.6215969,0.01774709,-0.7894003,1.744252,40.92434,-0.3973743
0.032877,-0.343845,21.27277,-0.6707874,0.6220601,0.01712248,-0.7869474,1.732947,41.62373,-0.4194278
0.0309184,1.228647,17.61383,-1.537039,0.6425019,0.02156787,-0.7621525,1.770935,42.16832,-0.4669506
0.03291,-1.267303,0.8942497,2.276159,0.6350667,0.01598088,-0.7715974,1.729228,42.19775,-0.3920422
0.0279631,-0.2023776,0.2128276,-0.0009692041,0.6346778,0.01677267,-0.78079,1.723569,42.2037,-0.3920693
0.0328748,1.493548,2.763579,-1.229287,0.6440896,0.01800212,-0.7940279,1.772669,42.29455,-0.4324818
0.0329116,-0.2860528,16.85513,-0.8222986,0.6500604,0.02221201,-0.7620561,1.763254,42.84928,-0.459545
0.0289642,-0.4645295,6.579701,0.1801356,0.6492274,0.02111934,-0.7635447,1.7498,43.03986,-0.4543275
0.0238935,0.1558954,1.152232,0.7351075,0.6474296,0.01733662,-0.7650636,1.753525,43.06739,-0.4367632
0.0249357,0.6129764,0.898556,-0.4647822,0.634833,0.01243709,-0.771257,1.76881,43.08979,-0.4483528
0.0289205,1.627037,19.95076,-5.647083,0.6472697,0.01812048,-0.7729051,1.815864,43.66678,-0.6116693
0.0229726,2.590026,16.81587,-4.463963,0.6727204,0.02264275,-0.7378747,1.875364,44.05308,-0.7142181
0.0249008,0.2856138,3.395804,0.613592,0.6746656,0.02105707,-0.7367587,1.882476,44.13764,-0.6989392
0.026962,-3.680822,-1.959201,4.765405,0.6588469,0.0213983,-0.7621998,1.783234,44.08482,-0.5704544
0.0239305,-1.215301,-0.9462916,3.911263,0.6587398,0.02177383,-0.7636695,1.754151,44.06217,-0.4768559
0.0249039,1.112403,-0.463313,2.484187,0.6583807,0.0196228,-0.7525342,1.781854,44.05063,-0.4149899
0.0219761,-0.05033235,-0.1472809,0.3585933,0.6513345,0.01593629,-0.7537486,1.780748,44.0474,-0.4071095
0.0259243,-0.2251477,1.129497,-2.854119,0.6594058,0.02051368,-0.7572961,1.774911,44.07668,-0.4811005
0.0219124,0.4745044,1.361915,-2.571959,0.6733518,0.02346595,-0.7510996,1.785309,44.10652,-0.5374583
0.0209798,0.05539747,0.006227303,0.4824361,0.6687109,0.01903572,-0.7489803,1.786471,44.10665,-0.5273369
0.0249329,-1.192038,-1.010013,2.212123,0.656745,0.01500822,-0.7573665,1.75675,44.08147,-0.4721822
0.026893,0.3789064,1.310998,-0.8940452,0.6562929,0.01527234,-0.7606797,1.76694,44.11673,-0.4962258
0.0249704,2.539421,1.993647,-2.45192,0.6688595,0.01782861,-0.7509481,1.83035,44.16651,-0.5574512
0.0259286,0.9099628,0.1001229,0.2520697,0.6694989,0.01642998,-0.7421244,1.853944,44.16911,-0.5509154
0.0268942,-1.454428,-0.9021763,1.660463,0.662935,0.01795518,-0.7556772,1.814829,44.14484,-0.5062586
0.0229377,-0.4627957,-0.5021926,1.045885,0.6590495,0.02051779,-0.7581584,1.804213,44.13332,-0.4822684
0.025961,1.004748,0.1875559,0.180037,0.664692,0.0217133,-0.7504817,1.830297,44.13819,-0.4775945
0.022908,0.5151747,0.0880921,0.4369848,0.6615474,0.02098063,-0.7526088,1.842099,44.14021,-0.467584
0.0239713,-0.07544502,0.1025503,0.3860147,0.6653129,0.02233461,-0.7516956,1.840291,44.14267,-0.4583308
0.0249012,-0.143472,0.0005057892,0.9077065,0.6638187,0.02030224,-0.759205,1.836718,44.14268,-0.4357278
0.0289494,2.34717,0.6664435,-0.03157833,0.6592797,0.01647228,-0.7554868,1.904667,44.16197,-0.436642
0.0239435,2.981573,1.116756,-1.162944,0.6663857,0.01498206,-0.7468302,1.976056,44.18871,-0.4644869
0.0318789,-0.4293552,-0.4450603,0.4711897,0.6638613,0.01364664,-0.7496895,1.962369,44.17452,-0.4494659
0.028927,0.2578259,-0.1664602,0.08501434,0.6661497,0.01481418,-0.7584791,1.969827,44.16971,-0.4470067
0.0279228,1.388783,-0.04957362,1.093089,0.6650836,0.01328667,-0.7497996,2.008606,44.16832,-0.4164846
0.0239369,0.3941108,-0.258197,0.8368939,0.6569522,0.0122949,-0.7530924,2.01804,44.16214,-0.396452
0.0258973,0.237324,0.9042448,-1.402719,0.6625395,0.01585527,-0.7522644,2.024186,44.18556,-0.4327786
0.0279267,-0.156732,1.11278,-1.38352,0.668359,0.01794113,-0.7498502,2.019809,44.21664,-0.4714158
0.0229377,-0.5950555,0.117944,0.03292483,0.6698391,0.02089474,-0.7523859,2.00616,44.21934,-0.4706605
0.0249343,0.05573867,-0.4232956,1.269854,0.660522,0.01587963,-0.7573144,2.007549,44.20879,-0.4389976
0.0209779,1.375987,0.7240475,-0.2127223,0.6576967,0.01487573,-0.7551494,2.036415,44.22398,-0.4434601
0.0209361,0.3110315,12.22467,-1.318832,0.6628021,0.01202477,-0.7635648,2.042926,44.47991,-0.4710713
0.0239361,0.6990484,16.46852,-1.887215,0.6838878,0.01666511,-0.7309157,2.059659,44.8741,-0.5162439
0.0219487,-0.0838071,3.473166,1.308606,0.6765138,0.01299992,-0.7355661,2.057819,44.95034,-0.4875217
0.0209693,-2.167402,-1.489196,3.097333,0.6769153,0.01461398,-0.73935,2.012371,44.91911,-0.4225728
0.0229452,-2.674505,-2.247424,3.468756,0.6642331,0.01316242,-0.750056,1.951004,44.86754,-0.3429815
0.0259289,-0.712759,-1.308682,0.7066337,0.6649541,0.01450526,-0.7495477,1.932523,44.83361,-0.3246593
0.027893,0.3338454,-0.03654903,-1.752964,0.6726928,0.01609102,-0.7440491,1.941834,44.83259,-0.3735547
0.0249315,0.1287779,0.9329982,-1.577173,0.6727458,0.01881527,-0.7497908,1.945045,44.85585,-0.412876
0.0279671,1.660277,2.01493,-1.327047,0.6728355,0.01904111,-0.7469689,1.991478,44.9122,-0.4499897
0.0229716,1.890183,1.424533,-0.38388,0.6818434,0.02169055,-0.7353187,2.034899,44.94493,-0.458808
0.0248998,-0.3780406,0.01484816,1.430902,0.6678848,0.01542661,-0.7392091,2.025486,44.9453,-0.4231789
0.0219756,-0.9364953,0.7381318,-0.4669109,0.6579167,0.01168067,-0.7518592,2.004905,44.96152,-0.4334395
0.0239008,0.9971073,13.73862,-4.565508,0.6743675,0.01517314,-0.7517574,2.028737,45.28988,-0.5425588
0.0248991,3.384236,18.3841,-5.15413,0.6907924,0.01776941,-0.7270241,2.113002,45.74763,-0.670892
0.0259544,1.476682,3.128403,-0.1123637,0.696138,0.01354733,-0.7126466,2.151328,45.82883,-0.6738083
0.0239464,-4.699822,-2.612201,4.068871,0.6910106,0.0146956,-0.7236105,2.038784,45.76627,-0.5763735
0.0239355,-6.529379,-5.389049,5.383877,0.683543,0.01699401,-0.7439108,1.8825,45.63728,-0.4475077
0.0219394,-3.415777,-4.115645,3.777032,0.6645161,0.01428845,-0.7539672,1.80756,45.54699,-0.3646419
0.023937,1.020598,-0.6016499,-1.119657,0.6747236,0.01815509,-0.7409457,1.83199,45.53259,-0.3914432
0.0229387,1.408449,-0.4621821,-1.911965,0.6879045,0.02096152,-0.7316952,1.864298,45.52199,-0.4353012
0.0219425,-0.04929813,-1.106665,0.3482007,0.6863648,0.02110441,-0.7358805,1.863217,45.4977,-0.4276608
0.0249341,0.08618446,-1.554808,2.090348,0.6740202,0.01755702,-0.7432873,1.865366,45.45893,-0.3755398
0.0249223,1.48451,-0.9413044,0.2535134,0.6756608,0.01654538,-0.7369003,1.902363,45.43547,-0.3692217
0.0239363,0.714403,-0.7515786,-0.8771188,0.680824,0.01664248,-0.7296047,1.919463,45.41748,-0.3902167
0.0229345,-1.321069,-0.9428644,-0.3803205,0.6824777,0.01693553,-0.7358341,1.889165,45.39586,-0.3989391
0.0239517,-1.903491,-1.267876,0.5960402,0.6829264,0.01698719,-0.7433054,1.843573,45.36549,-0.384663
0.0239002,-0.141968,-1.241457,1.64391,0.6788065,0.01343582,-0.7444833,1.84018,45.33582,-0.3453732
0.0239362,1.626698,-1.181401,1.698942,0.6750059,0.0113264,-0.74197,1.879117,45.30754,-0.304707
0.0209768,1.999867,-1.374497,0.5479403,0.6743479,0.009091847,-0.7368452,1.921068,45.27871,-0.293213
0.0259351,-0.1163168,-2.187383,-0.3327391,0.6821203,0.01368417,-0.7244611,1.918051,45.22198,-0.3018426
0.0279265,-3.690678,-2.73956,0.2452292,0.6726511,0.01577181,-0.7511612,1.814983,45.14547,-0.2949942
0.0239695,-0.6218442,-2.126116,-0.3581876,0.6801997,0.02020362,-0.7515291,1.800078,45.09451,-0.3035797
0.0249253,2.73206,-2.045961,1.432134,0.6762334,0.01916859,-0.7454556,1.868176,45.04352,-0.2678834
0.0219411,2.946254,-1.959622,2.007965,0.6713685,0.01541041,-0.7343863,1.93282,45.00052,-0.2238264
0.0239129,0.2615648,-1.896716,0.7310011,0.6685851,0.01345285,-0.7356595,1.939075,44.95517,-0.206346
0.0259553,-1.043471,-1.950219,-1.699562,0.6719921,0.01512754,-0.7465158,1.911991,44.90455,-0.2504587
0.022936,-0.5601733,-1.874957,-1.649699,0.6786715,0.01734339,-0.7447031,1.899143,44.86155,-0.2882962
0.0269372,-0.1681173,-1.896738,0.3586476,0.6762642,0.01722929,-0.7475525,1.894614,44.81045,-0.2786352
0.024897,0.1354011,-1.580854,1.350573,0.672003,0.01378797,-0.7470152,1.897985,44.77109,-0.24501
0.0249689,-0.5220883,-2.421086,0.7041089,0.667689,0.01092669,-0.7419392,1.884949,44.71064,-0.2274292
0.0239271,-1.824079,-2.555269,-0.7239375,0.6707231,0.01594876,-0.742358,1.841304,44.6495,-0.2447509
0.0219152,-2.558757,-2.893205,-0.4560337,0.6724666,0.01879286,-0.7466074,1.785229,44.58609,-0.2547449
0.0249328,-1.854392,-3.396212,1.340957,0.665518,0.01687857,-0.7572467,1.738993,44.50142,-0.2213112
0.0209455,-0.2521687,-3.017559,1.374953,0.6674148,0.01722153,-0.7524408,1.733712,44.43821,-0.1925121
0.0289641,-0.08011186,-4.558183,0.2233066,0.6661191,0.01790427,-0.7458327,1.731391,44.30619,-0.1860442
0.0278245,-1.183797,-5.287763,0.6579207,0.6671234,0.01584561,-0.7476733,1.698453,44.15906,-0.1677379
0.0299559,-1.20064,-4.313834,0.7825469,0.6575374,0.01651659,-0.7633526,1.662486,44.02983,-0.144296
0.0259314,1.233482,-3.662731,-0.3959045,0.6638961,0.01513617,-0.753356,1.694472,43.93486,-0.1545623
0.0299146,0.2304585,-5.484034,0.2208428,0.6556024,0.01571036,-0.7535756,1.701366,43.77081,-0.1479559
0.024933,-1.07386,-7.352503,0.0795751,0.6485065,0.01402492,-0.7620089,1.674592,43.58749,-0.1459718
0.0229394,-0.5337259,-5.655248,-1.888006,0.6553409,0.01650598,-0.7632569,1.662348,43.45776,-0.1892816
0.0219358,0.1099644,-5.053122,-2.07562,0.6543483,0.01734796,-0.7620374,1.664761,43.34692,-0.234812
0.0219748,0.1498601,-8.314559,-1.608052,0.6512409,0.01749443,-0.7678354,1.668054,43.1642,-0.2701486
0.0249328,0.8546386,-10.07005,-1.528853,0.6531984,0.01897545,-0.7689045,1.689362,42.91313,-0.3082671
0.0259321,1.451454,-7.16034,-0.2279199,0.6444201,0.01717507,-0.7795655,1.727002,42.72744,-0.3141776
0.0239731,3.482398,-5.904635,-0.1745704,0.6440719,0.01503061,-0.7694106,1.810485,42.58589,-0.3183626
0.0229348,1.960511,-4.913634,0.09387687,0.6385673,0.01377222,-0.767525,1.855449,42.4732,-0.3162096
0.0229095,-0.3226186,-6.908547,0.3744507,0.6344973,0.01269847,-0.7740786,1.848058,42.31493,-0.3076311
0.0259308,-0.01025603,-9.314869,-0.458262,0.6374052,0.01404619,-0.7728081,1.847792,42.07338,-0.3195142
0.0219799,0.5910916,-17.28877,-0.1876797,0.6285489,0.0126882,-0.7766026,1.860785,41.69338,-0.3236394
0.0229009,0.6388484,-23.53923,-0.1113033,0.6264006,0.0166226,-0.7822402,1.875415,41.15431,-0.3261883
0.0229374,0.8114857,-30.63152,0.6481298,0.6148822,0.01954831,-0.7894697,1.894028,40.4517,-0.3113219
0.0289093,2.121281,-31.58215,1.577672,0.6067126,0.01647696,-0.810551,1.955353,39.53868,-0.2657125
0.028951,1.020777,-21.79014,2.185473,0.5915495,0.0121015,-0.805495,1.984905,38.90784,-0.2024409
0.0269009,-2.586252,-11.95858,-0.1023524,0.582172,0.01194488,-0.8067134,1.915333,38.58614,-0.2051942
0.0279261,-2.703282,-21.8979,-1.106082,0.5814186,0.01750836,-0.8177161,1.839841,37.97462,-0.2360828
0.0239544,-0.9170964,-35.61745,0.2745816,0.575186,0.01411929,-0.8263958,1.817872,37.12142,-0.2295054
0.023936,0.2201846,-42.48084,3.607816,0.554625,0.0138851,-0.8419698,1.823143,36.1046,-0.1431487
0.0209794,-0.01965216,-42.20271,5.229167,0.5308262,0.01004731,-0.8502535,1.82273,35.21921,-0.03344394
0.0249334,-0.5685453,-33.89828,2.855037,0.5215043,0.009924326,-0.8564968,1.808555,34.37401,0.03774185
0.0279266,-1.797601,-26.49537,0.4776804,0.5134793,0.01381866,-0.8601223,1.758354,33.63409,0.05108184
0.0239636,-1.376669,-27.67851,-0.4247671,0.5037754,0.01772259,-0.8663423,1.725364,32.97081,0.04090289
0.0249288,-0.8386121,-35.05186,0.106005,0.4967219,0.02027269,-0.8691073,1.704458,32.09701,0.04354546
0.022942,-0.8680273,-43.04644,1.614555,0.4667882,0.01768204,-0.8855472,1.684544,31.10944,0.08058658
0.0229144,-0.2966305,-44.13981,1.69659,0.4486887,0.01392341,-0.9018511,1.677747,30.098,0.1194629
0.0229711,1.757543,-40.01566,-0.1605437,0.4452819,0.01366811,-0.9025072,1.718119,29.1788,0.1157751
0.0219458,2.398337,-34.78482,-0.8646573,0.4390005,0.0112286,-0.9071358,1.770753,28.41542,0.09679948
0.0248951,1.280167,-28.02638,-1.068802,0.4217103,0.006884335,-0.9082344,1.802623,27.7177,0.07019153
0.0279253,-0.1391895,-26.31128,-2.123914,0.4083748,0.01152244,-0.9171903,1.798736,26.98295,0.0108806
0.025896,1.075855,-36.03031,-0.6349892,0.409795,0.01463531,-0.9253642,1.826596,26.04991,-0.005563084
0.0239716,2.269515,-33.83201,1.537776,0.377258,0.008703513,-0.9368331,1.881,25.2389,0.03129986
0.023927,2.266928,-23.18733,-0.2245073,0.3635133,0.007733884,-0.9289171,1.935241,24.6841,0.02592807
0.0229134,0.8304722,-19.80497,-2.147873,0.3648291,0.0100495,-0.9274141,1.95427,24.2303,-0.02328701
0.0219436,-0.2957329,-23.1766,-1.781198,0.3621227,0.01535848,-0.9381972,1.94778,23.72172,-0.0623729
0.0219402,0.180677,-29.14592,0.03007093,0.3494115,0.0153579,-0.9468098,1.951744,23.08225,-0.06171314
0.0229374,1.668907,-30.00464,0.3826569,0.3382345,0.01288596,-0.9499047,1.990025,22.39402,-0.05293598
0.0219751,2.210491,-24.86923,-0.01359279,0.3244062,0.008952685,-0.9553711,2.0386,21.84752,-0.05323468
0.0269273,0.973863,-18.05696,-0.6638327,0.3163759,0.006896822,-0.9454316,2.064824,21.3613,-0.07110991
0.0259321,-0.04050801,-18.4022,-1.799877,0.3165562,0.009991944,-0.9517821,2.063773,20.88409,-0.1177845
0.0269271,0.4269691,-20.69407,0.7231284,0.3010206,0.008571601,-0.9691418,2.07527,20.32686,-0.09831275
0.0249691,1.378607,-12.27732,1.509318,0.2901025,0.006281479,-0.9626714,2.109693,20.0203,-0.06062643
0.023937,-0.02495739,-9.038802,0.05733367,0.2901562,0.009227079,-0.9465928,2.109096,19.80394,-0.05925404
0.0229285,-1.804272,-20.45505,0.4156355,0.2822652,0.01161149,-0.9617494,2.067726,19.33494,-0.04972414
0.0229466,-0.6170186,-27.27286,0.7860825,0.2752263,0.01167368,-0.975931,2.053568,18.70912,-0.03168622
0.0229047,2.575374,-27.85672,1.241508,0.266301,0.0108859,-0.9737162,2.112556,18.07107,-0.003249846
0.0289228,2.091608,-21.34106,3.009975,0.2488,0.006609861,-0.9668492,2.173051,17.45382,0.08380706
0.0279508,-0.3706797,-18.39174,0.4013893,0.2346858,0.005342345,-0.9694813,2.16269,16.93976,0.09502621
0.0298955,0.5977371,-19.02428,-1.721458,0.2360215,0.008599704,-0.9810874,2.18056,16.37102,0.04356236
0.0269632,1.586752,-18.44983,0.3791073,0.2264424,0.005579827,-0.9741154,2.223344,15.87356,0.05378431
0.0288875,0.8157072,-20.32308,0.6600703,0.2096653,0.00406766,-0.9784977,2.246908,15.28647,0.07285209
0.0279243,1.032314,-22.84095,-0.5269238,0.2046633,0.002648752,-0.9888648,2.275734,14.64865,0.05813811
0.0269637,2.253437,-23.01226,-0.3676585,0.1968325,0.006024703,-0.9878337,2.336495,14.02816,0.04822468
0.0258944,2.28824,-24.87479,0.6654696,0.1810365,0.001460853,-0.9916123,2.395748,13.38404,0.06545661
0.0279608,1.58074,-16.69917,-0.01557901,0.1691802,0.001024601,-0.9891855,2.439947,12.91712,0.06502102
0.0288881,0.3930342,-12.4974,-1.816532,0.1646296,0.00244971,-0.9862891,2.451301,12.55609,0.01254486
0.0249331,0.5919074,-18.14899,-2.231929,0.1632341,0.005176443,-0.9933968,2.466059,12.10358,-0.04310405
0.0239695,0.7387494,-16.9616,-0.171335,0.1501407,0.002839185,-0.9997012,2.483766,11.69702,-0.04721086
0.0229308,0.9587224,-11.56862,0.2727588,0.1399726,7.38604E-05,-0.9946958,2.50575,11.43174,-0.04095628
0.0239455,1.214861,-11.90078,-1.466615,0.1434489,0.0001756428,-0.9892594,2.534841,11.14677,-0.0760751
0.0229365,-0.1008299,-16.42404,-0.5376783,0.1428042,0.001742707,-0.9866823,2.532528,10.77006,-0.08840756
0.023919,-0.7158438,-18.85894,0.5662447,0.1226615,0.0006851302,-1.00667,2.515406,10.31898,-0.07486355
0.0269126,1.372538,-13.23988,-1.031202,0.125881,0.002980759,-1.000854,2.552345,9.962658,-0.1026159
0.0229715,2.071653,-8.910822,-0.2418938,0.1220193,-0.0005116863,-0.9923443,2.599934,9.757963,-0.1081726
0.0248996,0.2957106,-8.987231,0.2064861,0.1081206,-0.002162387,-0.9922797,2.607297,9.534184,-0.1030311
0.0239356,-0.393023,-13.02592,-1.250752,0.1112727,0.0002387548,-1.002399,2.597889,9.222402,-0.1329686
0.0219415,0.9234954,-13.3242,-0.3317208,0.1128616,0.002083553,-1.003347,2.618152,8.930049,-0.1402471
0.023937,1.526703,-9.91853,1.51412,0.09387761,-0.003434549,-0.9943005,2.654697,8.692629,-0.1040036
0.020979,-0.1502476,-7.649375,0.5299056,0.08869473,-0.002515232,-0.9892091,2.651545,8.532152,-0.0928867
0.0268925,-0.9207016,-15.40221,-1.316036,0.0946435,0.001606694,-0.9991595,2.626785,8.117949,-0.1282782
0.0259671,0.5736376,-12.00637,-0.08566044,0.08187422,0.000297985,-1.013053,2.641681,7.806178,-0.1305026
0.0278891,1.266303,-2.096123,0.3869597,0.07961225,-0.002517517,-0.9950807,2.676997,7.747719,-0.1197106
0.0249688,-0.8008183,-0.9727745,-0.04170932,0.07963276,-0.001526135,-0.9972801,2.657001,7.72343,-0.120752
0.0258952,-1.79012,-0.5051205,-0.307771,0.08240054,0.0007398175,-1.005689,2.610646,7.71035,-0.1287218
0.0219429,-0.6183353,-0.3700094,0.3657683,0.08420238,0.0001195539,-1.002974,2.597078,7.702231,-0.1206958
0.0219404,-0.1221133,-1.148376,0.953007,0.08226645,-0.0009812936,-1.003986,2.594398,7.677035,-0.09978646
0.0229384,-0.2143967,-8.709153,-0.01928213,0.07889508,0.002187481,-0.9870895,2.589481,7.477261,-0.1002288
0.0219429,1.40206,-24.57082,0.5512608,0.07327449,0.001078344,-1.007758,2.620246,6.938106,-0.0881325
0.0319131,2.807507,-17.44369,1.837878,0.05477706,-0.002284904,-1.010336,2.709842,6.381424,-0.0294801
0.0329351,0.5047926,-2.663193,-0.3074362,0.05546675,-0.003481475,-0.9951362,2.726468,6.293711,-0.03960555
0.0249444,-1.885599,-0.9756657,-0.3708981,0.05550099,-0.001502814,-0.998922,2.679432,6.269374,-0.04885738
0.0258948,-1.772524,-5.926838,-0.02843717,0.054139,0.001905265,-0.9983022,2.633533,6.1159,-0.04959375
0.0219698,0.3816995,-15.76828,1.308852,0.03852239,-0.0002251277,-1.0191,2.641919,5.769474,-0.02083853
0.0229322,2.495192,-11.36567,0.7651048,0.03732691,-0.001268148,-1.009928,2.699139,5.508833,-0.003292998
0.022945,2.796213,-11.93455,0.5280812,0.03421034,-0.003035941,-1.003237,2.763299,5.234995,0.008823826
0.0249007,1.906483,-11.38647,0.8478994,0.03405108,-0.003915629,-0.9995675,2.810771,4.951464,0.02993711
0.0289601,-0.2037827,-5.090188,1.102735,0.02601823,-0.005532821,-1.000535,2.80487,4.804052,0.06187242
0.022933,-1.538308,-2.308266,0.873925,0.02482383,-0.003320371,-1.003598,2.769592,4.751116,0.08191414
0.0239117,-0.2328664,-4.478865,-0.2243833,0.02382569,-0.0007684799,-1.00249,2.764023,4.644019,0.07654876
0.0229383,2.600618,-10.61052,0.1064707,0.01966686,-0.003291295,-1.011506,2.823677,4.400632,0.07899101
0.025941,2.202452,-9.490233,1.660909,0.01187834,-0.007182972,-1.000718,2.880811,4.154446,0.1220766
0.02193,0.9521874,-7.953784,0.6770862,0.008995268,-0.005211635,-1.005397,2.901692,3.980019,0.1369251
0.0229381,0.9506187,-5.199086,-0.4254566,0.01154005,-0.005577096,-1.003775,2.923498,3.860762,0.127166
0.0209441,0.5050764,-2.437964,0.1426006,0.01102321,-0.006820547,-1.000726,2.934076,3.809701,0.1301526
0.0278974,-0.7181079,-1.301314,0.6533947,0.005920411,-0.007198983,-1.002384,2.914043,3.773398,0.1483806
0.0259605,-0.8846847,-0.919782,0.2210896,0.00875752,-0.006065625,-1.005651,2.891076,3.74952,0.1541202
0.0219054,-0.3785823,-0.9247144,0.5450982,0.008857253,-0.005956125,-1.003688,2.882783,3.729263,0.1660608
0.0239686,1.012056,-8.591793,0.7108288,0.01116097,-0.006688087,-1.002194,2.907041,3.52333,0.1830984
0.0219084,1.981843,-14.66801,0.7554243,-0.00555664,-0.007430068,-1.012209,2.95046,3.201977,0.1996485
0.0258951,2.804696,-10.142,-0.2138596,-0.005490971,-0.006974013,-1.007302,3.023088,2.939349,0.1941106
0.0209779,1.723118,-5.782991,-0.3026309,-0.008649445,-0.01084747,-0.9960901,3.059235,2.818034,0.1877621
0.0318796,-0.2870575,-7.66487,-0.2396942,-0.01185898,-0.008853982,-1.004328,3.050084,2.573681,0.1801207
0.0319516,0.8312524,-12.29789,0.3983777,-0.01426278,-0.007130361,-1.008145,3.076643,2.180744,0.1928495
0.0288876,2.532208,-9.525086,0.6654814,-0.03061699,-0.01247314,-1.005317,3.149793,1.905587,0.2120737
0.0269268,0.7478102,-2.209927,-1.287018,-0.02724863,-0.01077259,-1.001709,3.169929,1.846081,0.1774184
0.0249343,-0.8090394,-0.4982069,-0.988332,-0.02079386,-0.00928045,-1.001375,3.149756,1.833658,0.152775
0.0229728,-1.733439,-0.6189328,0.6407421,-0.03113872,-0.01114968,-1.00274,3.109934,1.81944,0.1674947
0.0239,-1.790811,-1.059857,-0.4135157,-0.0244269,-0.01258549,-1.002546,3.067134,1.794109,0.1576116
0.0219413,0.3650159,-6.58604,-0.57881,-0.02459478,-0.008135212,-1.010975,3.075143,1.649603,0.1449118
0.0219421,2.545215,-10.15957,0.280369,-0.03087392,-0.009912238,-1.005057,3.13099,1.42668,0.1510637
0.0249664,3.281713,-16.82191,0.9967615,-0.0422063,-0.01424049,-1.00449,3.212923,1.006698,0.1759492
0.0258965,1.900853,-7.457937,-0.5014502,-0.04538132,-0.013523,-1.004401,3.262148,0.8135632,0.1629634
0.0239357,0.9051952,-1.432421,-0.69202,-0.04154148,-0.01317625,-0.9988356,3.283815,0.7792771,0.1463994
0.0239737,-0.8830215,-0.4020088,0.3434757,-0.04692227,-0.01455535,-0.9970719,3.262645,0.7696395,0.1546338
0.0219742,-2.131625,-0.444175,-0.3002095,-0.04797906,-0.01318952,-1.001243,3.215805,0.7598791,0.1480369
0.0239015,-1.698312,-0.5362507,-0.03806191,-0.04348852,-0.00968287,-1.011461,3.175213,0.7470619,0.1471272
0.02198,0.5498092,-0.5576812,0.7071347,-0.04621801,-0.01131383,-1.006725,3.187297,0.7348041,0.16267
0.0219406,1.161904,-1.620336,0.1591427,-0.05080504,-0.01316552,-0.9884066,3.21279,0.699253,0.1661617
0.0209119,0.5169354,-7.017727,-0.8609001,-0.05742915,-0.008495013,-0.9976483,3.2236,0.5524989,0.1481587
0.0319504,2.49025,-16.33952,0.01921272,-0.06330687,-0.0107146,-1.016735,3.303165,0.03044474,0.1487725
0.0269272,3.258029,-8.852407,0.4264038,-0.06936804,-0.01735187,-0.9957709,3.390895,-0.2079258,0.1602544
0.0239019,1.068077,-5.341342,-0.9534956,-0.0629245,-0.01611127,-0.9943356,3.416424,-0.335594,0.137464
0.0219409,-1.444842,-1.856907,-0.6924331,-0.06053741,-0.01422303,-1.00128,3.384723,-0.3763362,0.1222714
0.0219764,-1.377833,-0.2892308,1.034544,-0.06694242,-0.01556275,-1.006148,3.354443,-0.3826924,0.145007
0.0239275,0.06523045,-0.4244478,1.005454,-0.06954454,-0.01718989,-1.001901,3.356004,-0.3928484,0.169065
0.0209527,0.4382789,-0.6472037,0.1839085,-0.06833069,-0.01645361,-1.001636,3.365187,-0.4064091,0.1729183
0.0249252,0.1307664,-0.4922388,-0.07856245,-0.06703205,-0.01561687,-0.9980595,3.368446,-0.4186782,0.1709602
0.0259116,-0.9356942,-0.3562089,-0.3684475,-0.06932849,-0.01500288,-1.000167,3.344201,-0.4279081,0.1614131
0.0259344,-0.91536,-0.4194382,-0.7471455,-0.06249008,-0.00811392,-1.003346,3.320462,-0.438786,0.1420363
0.0249663,-0.2570633,-0.6554923,0.7107293,-0.06504639,-0.009958155,-1.003145,3.314044,-0.4551512,0.1597806
0.0278921,0.6819159,-3.041451,0.4672935,-0.07080142,-0.01060971,-1.00089,3.333064,-0.5399837,0.1728144
0.0239076,0.3587279,-2.433781,0.1759411,-0.06790541,-0.01342984,-0.9970744,3.34164,-0.5981696,0.1770207
0.0229949,-0.6776286,-1.064537,0.139698,-0.07309745,-0.01415619,-1.001555,3.326058,-0.6226485,0.1802331
0.0228814,-0.4408059,-0.5337142,-0.2334117,-0.0722217,-0.01389429,-1.003627,3.315972,-0.6348606,0.1748923
0.0239373,0.1214211,-0.07651446,-0.3047958,-0.07007314,-0.01415734,-0.9993122,3.318878,-0.6366922,0.1675963
0.0229422,-0.6978068,0.1282793,0.2939333,-0.06695364,-0.01392938,-0.9947373,3.302869,-0.6337492,0.1743398
0.0269534,-2.437085,-0.1800299,0.8292646,-0.07382,-0.01305256,-1.002782,3.237181,-0.6386016,0.1966913
0.0269016,-0.0475402,-2.814738,-0.5860124,-0.07504383,-0.007920912,-1.004233,3.235902,-0.7143226,0.1809266
0.0278941,2.59688,-7.448396,0.4025095,-0.07428035,-0.01108018,-1.005961,3.30834,-0.9220889,0.1921542
0.0279262,1.639299,-1.910656,1.039172,-0.08026221,-0.01509971,-0.9930688,3.354119,-0.9754462,0.2211744
0.0229127,-1.059976,-0.3528224,0.2110518,-0.08081716,-0.0151917,-0.9979792,3.329832,-0.9835303,0.2260101
0.0239364,-2.351362,0.151895,-0.5636189,-0.07527017,-0.01194974,-1.004386,3.273549,-0.9798945,0.2125191
0.0229732,-0.8084694,0.2174504,-0.2379378,-0.07611489,-0.01011255,-1.005854,3.254976,-0.974899,0.2070529
0.0268943,1.336057,-0.187687,-0.1982397,-0.07870889,-0.0130809,-1.001861,3.290908,-0.9799467,0.2017214
0.0249574,0.9330137,-0.3029744,-0.4804656,-0.07548805,-0.01213058,-0.9956868,3.314194,-0.9875082,0.1897302
0.0249435,-0.9913247,-0.198863,0.7877677,-0.07144798,-0.01161365,-0.9972276,3.289467,-0.9924685,0.2093799
0.0219327,-1.678393,-0.1702396,1.877704,-0.08256823,-0.01331705,-1.00571,3.252655,-0.9962023,0.2505631
0.0209394,-0.4179198,-0.3165715,0.4494577,-0.08074917,-0.01111231,-1.00555,3.243904,-1.002831,0.2599744
0.0229301,0.7675729,-0.7327506,-0.5835063,-0.07569216,-0.01051678,-0.9998458,3.261505,-1.019633,0.2465946
0.0229049,1.151264,-5.999734,-0.2245121,-0.0770513,-0.00558921,-0.9890416,3.287874,-1.157057,0.2414521
0.0209796,0.5617502,-8.933541,1.105128,-0.081971,-0.01087442,-1.005441,3.29966,-1.344479,0.2646373
0.0209093,-0.1142883,-2.799376,1.630875,-0.08170048,-0.01154222,-0.9966164,3.29727,-1.403012,0.2987377
0.0239016,-1.872732,-0.4280922,2.432577,-0.08582435,-0.01240378,-0.9983887,3.252509,-1.413244,0.3568802
0.0259317,-1.634125,0.5220073,-0.05433273,-0.09341874,-0.01311888,-1.006208,3.210133,-1.399707,0.3554713
0.0319151,1.344129,1.146623,-3.116031,-0.08159617,-0.0120911,-1.005812,3.253031,-1.363113,0.2560228
0.0279599,3.168232,2.553936,-2.876768,-0.0847129,-0.01483797,-0.9987596,3.341615,-1.291705,0.1755887
0.0259397,1.371373,4.52364,-2.84206,-0.07376164,-0.01382466,-0.9967807,3.377188,-1.174363,0.1018665
0.0239379,-1.120064,5.025797,-1.924824,-0.07745769,-0.0145248,-1.004185,3.350376,-1.054056,0.05579028
0.0258989,2.04425,6.847997,-2.661176,-0.0790752,-0.01215309,-1.013137,3.403319,-0.8767003,-0.01313124
0.0289604,5.737408,9.742037,-3.066538,-0.0679272,-0.01613523,-0.9941515,3.569477,-0.5945671,-0.1019394
0.0249348,2.889112,9.04395,-1.982553,-0.06411801,-0.0176426,-0.9851674,3.641516,-0.369058,-0.151374
0.0269256,-1.825723,7.0571,-0.4958913,-0.05952522,-0.01823493,-1.003134,3.592358,-0.1790413,-0.1647262
0.0249296,-0.4706074,8.398083,-0.7471826,-0.0746909,-0.01830504,-1.021338,3.580626,0.03031954,-0.1833531
0.0229478,3.289821,11.58554,-2.921034,-0.06116894,-0.0174699,-1.009156,3.65612,0.2961822,-0.2503844
0.0229329,2.626652,10.42642,-1.711388,-0.04628713,-0.02134097,-0.9859565,3.716357,0.5352904,-0.2896315
0.0259322,-2.243058,6.775558,-0.0743551,-0.04779774,-0.01914945,-1.004469,3.658189,0.7109955,-0.2915597
0.0239411,-1.412624,8.71483,-0.6268012,-0.04968351,-0.01904554,-1.021407,3.624369,0.9196381,-0.306566
0.0209346,2.747929,13.29726,-1.632307,-0.03835484,-0.01968759,-1.008893,3.681896,1.198011,-0.3407377
0.0239371,2.306708,12.57814,-0.7370034,-0.03199906,-0.02248904,-0.9871388,3.737112,1.499095,-0.3583794
0.0259044,-2.21613,8.283325,-0.08016705,-0.03009584,-0.02157959,-0.9940963,3.679704,1.71367,-0.3604561
0.022941,-3.072099,12.91284,-0.711473,-0.02488596,-0.02013367,-1.024422,3.609227,2.009903,-0.376778
0.0219746,-1.849885,26.56776,-2.264311,-0.00906216,-0.01550378,-1.012185,3.568577,2.593719,-0.4265353
0.0239294,-0.9058601,32.67213,-0.7705694,0.006493547,-0.0160293,-0.9959415,3.5469,3.375544,-0.4449746
0.0249055,-2.798787,30.02238,0.9434419,0.008707524,-0.0169871,-0.9972696,3.477195,4.123266,-0.4214777
0.0219618,-4.224982,27.59175,0.6705129,0.01723006,-0.01468163,-1.007692,3.384407,4.72923,-0.406752
0.0219447,-3.739714,31.4531,0.4251596,0.03445761,-0.01287201,-1.011024,3.30234,5.419459,-0.397422
0.0229383,-3.003754,39.0382,0.06556562,0.04337364,-0.01588339,-1.011059,3.233438,6.314929,-0.395918
0.025931,-3.381844,45.94265,-0.6494149,0.07155862,-0.0114897,-0.9915634,3.145744,7.506268,-0.412758
0.0239361,-3.494927,34.68773,0.001690568,0.0919634,-0.01027385,-0.9952291,3.062089,8.336556,-0.4127175
0.0249086,-2.387934,24.03464,0.4137613,0.09850015,-0.008854591,-1.002249,3.002609,8.935225,-0.4024113
0.0239379,-0.6966161,28.32269,-1.050032,0.1058649,-0.01087347,-1.005728,2.985933,9.613211,-0.4275469
0.022973,-1.250072,38.63671,-2.386772,0.1311309,-0.007271661,-0.9976735,2.957215,10.50081,-0.4823782
0.022905,-2.301739,36.1192,-0.5391432,0.1543588,-0.0022132,-0.9713694,2.904494,11.32812,-0.4947273
0.0219364,-3.02399,18.86485,2.577855,0.1448798,-0.006494909,-0.9949266,2.838159,11.74195,-0.4381784
0.0229429,-1.57548,15.56886,1.584899,0.1400474,-0.008251625,-1.009462,2.802012,12.09914,-0.4018162
0.0229311,-1.867,41.69006,-3.059648,0.1578989,-0.007727577,-1.002622,2.7592,13.05514,-0.4719773
0.0308908,-3.932744,48.77734,-3.351029,0.2004979,-0.0003420943,-0.9641756,2.637714,14.56191,-0.5754933
0.0269541,-4.567167,21.62829,0.1249693,0.2156394,0.001768301,-0.9774602,2.514611,15.14489,-0.5721248
0.024909,-2.430586,14.24853,1.776487,0.2115104,7.088669E-05,-1.000444,2.454067,15.4998,-0.5278743
0.02593,0.2943419,36.75191,-2.205365,0.2233298,-0.001301444,-0.9879295,2.461699,16.45278,-0.5850594
0.0219693,-1.699993,48.92582,-4.101951,0.2474393,0.001574916,-0.9633458,2.424352,17.52765,-0.6751764
0.0239708,-3.350145,35.0411,-1.614495,0.2738858,0.006749492,-0.952324,2.344046,18.36761,-0.7138771
0.0219312,-2.655547,15.81804,2.24609,0.2726768,0.005428096,-0.9747794,2.285807,18.71452,-0.6646177
0.0239372,0.2797888,19.05113,1.782921,0.2597421,0.0004945174,-0.9944607,2.292504,19.17055,-0.6219396
0.0239437,0.1512576,50.7374,-4.500507,0.2883718,0.004840527,-0.9490964,2.296126,20.38539,-0.7296984
0.0268952,-4.051545,57.34079,-5.124067,0.3247237,0.008534125,-0.9288934,2.187159,21.92758,-0.8675113
0.0239725,-6.455872,37.9373,-2.308942,0.3431557,0.01151458,-0.9422545,2.032395,22.83703,-0.9228624
0.0229766,-3.173027,18.98919,0.5738274,0.3564054,0.01798454,-0.951487,1.95949,23.27334,-0.9096778
0.0238986,1.883756,13.37497,2.842287,0.3454631,0.008116432,-0.9621074,2.004509,23.59299,-0.8417511
0.0289576,2.004874,36.87536,0.9376932,0.3723029,0.006359425,-0.9181553,2.062565,24.66081,-0.8145977
0.0249255,-1.575506,41.23323,-0.3014079,0.3858055,0.008651298,-0.9047368,2.023295,25.68857,-0.8221105
0.0219485,-3.995504,25.96108,0.9065031,0.3915303,0.01119333,-0.9159266,1.9356,26.25837,-0.8022141
0.0259317,-2.867635,16.87367,2.001883,0.3875808,0.008062694,-0.9435762,1.861237,26.69594,-0.7503018
0.026927,-0.6634824,42.95062,-3.093966,0.4220819,0.01369317,-0.9221566,1.843372,27.85247,-0.8336131
0.0229426,-1.013603,58.73122,-4.669678,0.4450719,0.01782438,-0.8850752,1.820117,29.19991,-0.9407476
0.0229371,-1.826708,35.45863,-0.4950554,0.4575132,0.0168292,-0.873776,1.778218,30.01323,-0.9521028
0.0259593,-1.827557,6.282516,4.166475,0.4472936,0.01420285,-0.9081176,1.730775,30.17632,-0.843944
0.030924,1.330485,21.65146,0.7086384,0.450187,0.00778299,-0.9137653,1.771919,30.84587,-0.8220301
0.0269311,-0.1302901,45.3173,-2.235351,0.4836428,0.01591303,-0.8650064,1.768411,32.06631,-0.8822305
0.0269251,-1.554156,23.06492,0.6216015,0.4967641,0.01471824,-0.8599518,1.726565,32.68734,-0.8654938
0.0288853,-0.7846918,3.494211,3.032222,0.4848719,0.01313349,-0.8868294,1.703899,32.78827,-0.7779072
0.0239356,0.3806953,26.17441,0.01800714,0.4936978,0.01324939,-0.8798568,1.713011,33.41477,-0.7774762
0.0249539,0.09180842,40.23992,-2.222318,0.5121229,0.01568855,-0.8484811,1.715302,34.41891,-0.8329317
0.0229459,-0.6277521,17.94524,-0.5341516,0.5318441,0.0142872,-0.8445733,1.700897,34.83068,-0.8451883
0.0219074,-1.696749,3.078611,2.182451,0.5261976,0.01352954,-0.8630339,1.663726,34.89813,-0.7973765
0.0239362,0.3189367,8.794264,1.181611,0.5088646,0.009917576,-0.8825145,1.67136,35.10863,-0.7690932
0.0229387,1.023408,35.74018,-4.400898,0.5340062,0.01160868,-0.8625844,1.694836,35.92846,-0.8700441
0.0219741,0.3190062,41.09949,-5.84931,0.5625849,0.01678053,-0.8129247,1.701846,36.83159,-0.9985774
0.0279264,-2.278985,10.76772,-0.4286711,0.5670426,0.01740351,-0.8301495,1.638202,37.13229,-1.010549
0.0308823,-0.8540505,1.217245,2.255397,0.5539757,0.01809233,-0.8508968,1.611827,37.16988,-0.9408967
0.0249351,2.470042,15.43176,-0.3380632,0.5514966,0.01352932,-0.8456877,1.673418,37.55468,-0.9493264
0.0229752,1.541899,25.25261,-1.904247,0.5717387,0.01462314,-0.8127056,1.708843,38.13486,-0.9930769
0.0259313,-0.8309005,9.99761,0.3007365,0.5863585,0.01688257,-0.8120217,1.687297,38.39411,-0.9852784
0.0209313,-0.7726529,1.947176,1.413994,0.563794,0.01423366,-0.8330302,1.671124,38.43487,-0.9556816
0.0239315,1.125963,14.69617,-1.620802,0.5689083,0.01412953,-0.8322333,1.69807,38.78657,-0.9944699
0.0199265,1.253204,30.9283,-4.371861,0.5946507,0.01758043,-0.8011292,1.723042,39.40286,-1.081586
0.0269298,0.003280996,22.89773,-3.007412,0.6135061,0.020378,-0.7866614,1.72313,40.01949,-1.162575
0.023973,-1.617368,5.240081,2.338604,0.6155518,0.01958711,-0.7948546,1.684357,40.14511,-1.106511
0.0239318,-0.4844826,0.4639239,4.067733,0.5894392,0.01471273,-0.814083,1.672763,40.15621,-1.009163
0.0209457,1.676728,5.738569,1.039035,0.5975766,0.01521865,-0.8111612,1.707883,40.27641,-0.9873999
0.0239374,0.02795296,20.29326,-0.9363971,0.6171611,0.01586435,-0.7846868,1.708552,40.76218,-1.009815
0.0229036,-1.070134,11.12379,0.7939472,0.6243415,0.01821266,-0.7840929,1.684042,41.01695,-0.9916306
0.0219762,-1.067135,1.810707,2.851638,0.6041799,0.01506336,-0.8016434,1.660591,41.05674,-0.9289625
0.0288907,1.41886,7.05927,-0.7187891,0.6097553,0.01122484,-0.8080987,1.701582,41.26069,-0.9497288
0.0249691,0.4970775,26.73637,-3.562048,0.6328478,0.01627456,-0.7805706,1.713994,41.92828,-1.03867
0.028888,-0.9184533,10.30444,0.9905081,0.6440331,0.01892314,-0.7673004,1.687462,42.22595,-1.010056
0.0249689,-1.600306,0.3777208,3.187176,0.6201303,0.01345554,-0.7876092,1.647504,42.23538,-0.9304758
0.0219393,0.3271461,1.076139,0.08741177,0.6307908,0.0166422,-0.7821866,1.654681,42.25899,-0.9285581
0.0239005,0.6719766,1.087508,0.2532264,0.6378012,0.01737015,-0.7767028,1.670742,42.28498,-0.9225058
0.0279242,-0.1570172,-0.03662281,2.108199,0.6306723,0.01444098,-0.7817129,1.666357,42.28396,-0.863636
0.0239378,0.7152907,0.485591,0.3440585,0.6260522,0.01296029,-0.7825148,1.68348,42.29559,-0.8554
0.0239359,0.7610267,4.011907,-1.440954,0.6428905,0.01504812,-0.772857,1.701696,42.39161,-0.8898906
0.0239463,-1.092315,16.41225,-1.153324,0.6459771,0.01599051,-0.7655809,1.675539,42.78463,-0.9175084
0.0289151,-1.093976,5.514375,0.9133353,0.6464676,0.01734046,-0.766301,1.643906,42.94408,-0.8910992
0.0279608,-0.9354035,0.1561314,2.050951,0.6426437,0.01541245,-0.7727349,1.617752,42.94844,-0.833753
0.024937,-0.1023982,0.5446846,1.436237,0.6359766,0.01283692,-0.7755305,1.615198,42.96202,-0.7979375
0.0269633,0.6576218,0.6851643,-0.3095622,0.6444278,0.01478152,-0.7684274,1.63293,42.9805,-0.8062843
0.0249287,-0.4552092,-0.305022,0.5394148,0.6416327,0.01306156,-0.7687184,1.621582,42.9729,-0.7928374
0.0229453,-0.8481571,-0.2121242,0.1369968,0.6392961,0.01396918,-0.7783015,1.602121,42.96803,-0.789694
0.0248964,0.8865548,1.32527,-0.9670029,0.6415828,0.01677582,-0.7765383,1.624193,43.00102,-0.8137689
0.0219432,0.5408224,12.47054,-0.8951028,0.6350845,0.01068028,-0.782298,1.63606,43.27467,-0.8334103
0.0269612,-0.3463835,15.77785,-2.068316,0.6626302,0.01718308,-0.7499251,1.626721,43.70005,-0.8891746
0.0268914,-0.9325426,1.485935,1.48892,0.657411,0.01761475,-0.7633466,1.601644,43.74001,-0.8491355
0.0229806,-0.33195,-1.038041,3.292397,0.6548148,0.01586881,-0.7595904,1.594015,43.71616,-0.7734742
0.0239006,-0.9069433,-1.157898,3.137178,0.6438911,0.01205756,-0.7630593,1.572339,43.68848,-0.6984938
0.0229727,-0.4971029,0.1920876,-0.1016115,0.6460223,0.01320323,-0.7686639,1.560919,43.6929,-0.7008281
0.0239349,0.6482291,1.028793,-1.612536,0.658137,0.01565657,-0.7621256,1.576434,43.71752,-0.739424
0.0219432,0.461126,-0.03196862,0.1692887,0.6572653,0.014051,-0.7599409,1.586553,43.71682,-0.7357092
0.0249379,0.09249289,-0.4236624,0.7174353,0.6453914,0.01135213,-0.7661103,1.58886,43.70625,-0.7178179
0.0299126,0.7759686,0.994446,-1.071072,0.6500181,0.01357103,-0.7661612,1.612071,43.736,-0.7498565
0.0289323,0.1219357,0.8061967,0.06983538,0.6569647,0.01597362,-0.7555184,1.615599,43.75933,-0.747836
0.0278922,-1.546254,-0.4691895,1.101776,0.6523495,0.01407952,-0.7676003,1.57247,43.74624,-0.717105
0.0249237,-0.07818268,-0.0637671,0.6731053,0.6551523,0.01629353,-0.7681638,1.570522,43.74465,-0.7003288
0.0259279,1.133975,0.1703117,1.344947,0.6522738,0.01427857,-0.7608581,1.599923,43.74907,-0.6654571
0.0219522,0.709765,-0.01746416,1.279063,0.6517707,0.01267627,-0.7589141,1.615504,43.74868,-0.6373789
0.0239711,-0.2225845,-0.4711655,0.494398,0.6496224,0.01183817,-0.7628685,1.610169,43.73739,-0.6255276
0.0249007,-0.01479376,0.1230821,-0.2398437,0.6527177,0.01212463,-0.7671189,1.6098,43.74045,-0.6314999
0.0229745,1.357276,0.846373,-0.4137405,0.6535172,0.01172859,-0.7620863,1.640983,43.7599,-0.6410054
0.0219405,1.083507,0.5767481,-0.2705528,0.6535453,0.01069347,-0.7532675,1.664756,43.77255,-0.6469415
0.0239378,-1.42901,-0.3273486,0.03355487,0.6527522,0.009869562,-0.7584311,1.630548,43.76471,-0.6461383
0.0219424,-1.514294,-0.1590908,-0.1717403,0.6568748,0.01520902,-0.7691309,1.597321,43.76122,-0.6499066
0.0249168,0.6163173,-0.02380097,0.8079626,0.6579214,0.01640681,-0.7649423,1.612678,43.76063,-0.6297748
0.0229184,1.575446,-0.2917014,2.378112,0.6515545,0.01085632,-0.7607679,1.648785,43.75394,-0.5752723
0.0209773,1.090945,-0.04344378,1.434197,0.644493,0.00826194,-0.7609943,1.67167,43.75303,-0.5451868
0.0209423,0.6766854,1.059218,-1.443745,0.650365,0.011848,-0.76384,1.685841,43.77522,-0.5754221
0.025934,-0.2700308,7.996858,-1.824127,0.6570024,0.01349966,-0.7690186,1.678838,43.9826,-0.622729
0.0248957,-0.5204518,9.379383,-1.264619,0.6644834,0.01194356,-0.7501839,1.665881,44.21611,-0.6542126
0.0219744,-0.7673752,1.234162,0.2085686,0.6657635,0.01345411,-0.7561642,1.649019,44.24323,-0.6496294
0.0229069,-0.8146117,-0.7218548,1.609413,0.6632984,0.0145288,-0.7542256,1.630358,44.22669,-0.6127627
0.0269617,-1.116478,-0.7389735,1.745509,0.6440305,0.008397421,-0.763328,1.600256,44.20677,-0.5657009
0.0239265,0.5412152,1.223041,-2.541305,0.6530154,0.01147324,-0.7607459,1.613206,44.23603,-0.6265054
0.0219522,1.292607,1.33381,-2.627836,0.6710646,0.01502981,-0.750818,1.641581,44.26531,-0.6841922
0.0239009,0.05175284,-0.4633997,0.8796425,0.6648508,0.01255804,-0.7505429,1.642818,44.25424,-0.663168
0.022973,-1.123978,-1.21953,2.005239,0.6541216,0.008668715,-0.7605066,1.616997,44.22622,-0.6171017
0.0279177,1.316166,2.07744,-2.158987,0.6540136,0.01161361,-0.7628165,1.653741,44.28422,-0.6773756
0.0229522,0.640785,14.67572,-2.859817,0.6583171,0.01165398,-0.7659509,1.668449,44.62106,-0.7430147
0.022938,-0.09341697,18.15069,-2.736253,0.6864185,0.01812671,-0.7286683,1.666306,45.0374,-0.8057789
0.0239365,-1.408935,2.23925,1.233959,0.6780403,0.01659344,-0.7425096,1.632581,45.091,-0.7762422
0.0239704,-2.183402,-2.145229,4.205889,0.6636457,0.01305074,-0.7520251,1.580244,45.03958,-0.6754254
0.0229282,-1.000114,-0.5743952,1.982369,0.6544473,0.01121593,-0.7577883,1.557313,45.02641,-0.6299732
0.0219526,1.591134,1.234293,-1.849239,0.6664636,0.01319354,-0.7532157,1.592242,45.05351,-0.6705688
0.0229029,2.035735,1.105092,-2.104138,0.6756873,0.01301251,-0.7380276,1.638867,45.07882,-0.7187597
0.0279252,-1.391496,-0.9547371,-0.02497825,0.67123,0.01118991,-0.7423846,1.600009,45.05216,-0.7194571
0.0229666,-1.156419,0.02770215,-0.3713622,0.6620505,0.01494645,-0.7628183,1.57345,45.0528,-0.7279861
0.0248991,3.018412,4.058957,-2.275852,0.6690037,0.01718143,-0.7636988,1.648606,45.15386,-0.7846528
0.0219406,1.900793,14.84774,-1.900133,0.6779027,0.01357338,-0.7290486,1.69031,45.47963,-0.8263428
0.0229164,-0.3183457,6.590439,-0.8601944,0.6864063,0.01506001,-0.7264833,1.683015,45.63065,-0.8460554
0.0239271,-2.745668,-1.111107,2.108978,0.6876341,0.01685682,-0.7388362,1.617319,45.60407,-0.7955937
0.0239759,-2.405483,-2.859949,5.170745,0.6775842,0.01379578,-0.7443731,1.559645,45.5355,-0.6716204
0.0229335,-1.132529,-1.320563,3.73911,0.6532791,0.008109076,-0.7503468,1.533672,45.50521,-0.5858696
0.0249038,1.202461,1.554711,-2.912447,0.6802126,0.01414201,-0.7395582,1.563618,45.54393,-0.6584005
0.0379328,-0.1339544,-0.4128626,-1.258937,0.6799572,0.01229828,-0.7378579,1.558537,45.52827,-0.7061555
0.0269256,-1.384355,-0.7255023,0.2039252,0.6762749,0.01221837,-0.7467289,1.521262,45.50874,-0.7006648
0.0239044,0.6840255,2.001195,-1.379561,0.6679555,0.01321729,-0.7557714,1.537614,45.55658,-0.7336423
0.0229756,3.770027,2.883909,-2.411432,0.6853721,0.01656187,-0.7327369,1.624232,45.62284,-0.7890464
0.0249251,1.244173,0.1393806,0.05004877,0.6826704,0.01445817,-0.7303328,1.655243,45.62631,-0.7877989
0.025929,-1.584562,-1.259442,1.731625,0.6753061,0.01087198,-0.7468725,1.614157,45.59365,-0.7428997
0.0289227,1.851872,2.422891,-1.990882,0.6772201,0.01538608,-0.745102,1.667718,45.66373,-0.8004813
0.031912,0.7317165,14.63407,-1.39228,0.6802288,0.01677086,-0.7309595,1.691069,46.13073,-0.8449118
0.0369053,-2.060628,-0.0379066,1.939515,0.6880054,0.01245628,-0.7377589,1.615021,46.12933,-0.7733334
0.0279488,-0.3479425,-0.425677,1.324708,0.6835773,0.01339281,-0.7347419,1.605296,46.11744,-0.7363094
0.0249468,-0.7640757,-0.9924853,0.867533,0.6822973,0.01114815,-0.7285215,1.586235,46.09267,-0.7146673
0.0309116,-2.329653,-2.386898,-0.09185357,0.6821577,0.01365749,-0.7388024,1.514222,46.01889,-0.7175066
0.0268944,-1.076947,-2.065352,0.1824851,0.6896163,0.01725144,-0.7417513,1.485258,45.96334,-0.7125987
0.0309521,0.7329766,-1.46878,1.892998,0.6816582,0.01487199,-0.7381873,1.507945,45.91788,-0.6540065
0.0278911,0.293824,-1.694059,1.33283,0.6800223,0.01287641,-0.7329501,1.51614,45.87063,-0.6168324
0.0239703,-0.9551435,-2.85078,1.372414,0.68734,0.01682539,-0.7343047,1.493245,45.8023,-0.5839352
0.029884,-0.8482316,-6.878413,3.813693,0.6861651,0.01721406,-0.7384839,1.467896,45.59674,-0.4699668
0.0249691,0.1367241,-11.25579,5.238483,0.6644833,0.009251291,-0.7492219,1.47131,45.3157,-0.3391666
0.0229384,1.462539,-10.02658,3.841414,0.6736863,0.01096648,-0.7438272,1.504859,45.0857,-0.2510507
0.024898,0.8163379,-12.43523,4.438479,0.6651726,0.007270978,-0.7446918,1.525184,44.77609,-0.1405414
0.0209804,-0.7750638,-14.68792,3.507824,0.655212,0.0001524109,-0.7458428,1.508923,44.46793,-0.06694587
0.024901,-2.823919,-16.12694,0.3827668,0.6468216,0.002576901,-0.7489927,1.438604,44.06635,-0.0574146
0.0269471,-1.131652,-29.52386,-2.099055,0.6668961,0.01421444,-0.7595773,1.40811,43.27077,-0.113978
0.0239535,3.826554,-60.14639,2.603001,0.6418003,0.0164431,-0.7630544,1.499769,41.83006,-0.05162705
0.0229366,4.211635,-71.35078,6.75392,0.611387,0.005679935,-0.7992915,1.59637,40.19351,0.1032849
0.0219401,4.257932,-61.81507,4.812867,0.5764323,0.0003127614,-0.8239017,1.689789,38.83728,0.2088797
0.0219753,2.786933,-36.36093,-0.1211531,0.5722594,-0.002096179,-0.8316916,1.751033,38.03824,0.2062173
0.0209369,-0.4031891,-10.7032,-3.343747,0.573782,0.003918552,-0.8171674,1.742591,37.81415,0.1362096
0.0199202,-2.70282,-6.802388,-3.732648,0.5784222,0.005338288,-0.8071724,1.68875,37.67865,0.06185451
0.021938,-2.962291,-21.83098,-2.431957,0.5649563,0.006127872,-0.824982,1.623764,37.19972,0.008502249
0.0258995,-0.5013759,-39.72292,-0.5605161,0.5641837,0.009794967,-0.8445784,1.610778,36.17091,-0.006014837
0.0259703,1.356512,-43.20539,3.495209,0.5432495,0.004659649,-0.8577393,1.646007,35.04885,0.08475678
0.0219575,1.078593,-34.48442,3.931509,0.5129246,-0.002916056,-0.8591413,1.66969,34.29166,0.1710829
0.022973,-0.5796922,-26.7272,0.3934036,0.5071108,0.0001905542,-0.8529392,1.656373,33.67766,0.1801206
0.0248989,-2.276424,-27.45366,-1.978609,0.5026734,0.004082195,-0.8720884,1.599693,32.99409,0.1308554
0.0219761,-1.877701,-26.75255,-1.666538,0.5008487,0.005300545,-0.8729603,1.558428,32.40618,0.09423138
0.0239274,-0.4954921,-29.09576,-1.056116,0.4787666,0.008940883,-0.8847262,1.546572,31.70999,0.06896126
0.0219662,1.442559,-30.68522,-0.7045192,0.4793165,0.008735808,-0.890237,1.57826,31.03595,0.05348565
0.0289322,1.044958,-26.74253,1.327726,0.460757,0.004233679,-0.8868166,1.608493,30.26223,0.09189968
0.0269178,-1.147925,-28.56807,-0.1094512,0.4456359,0.006002265,-0.887724,1.577593,29.49324,0.0889535
0.0219775,-0.09036686,-40.80832,-0.7017322,0.4435102,0.01051299,-0.9065956,1.575607,28.59638,0.07353117
0.0239425,1.054994,-45.12006,2.727216,0.422965,0.006372329,-0.9221964,1.600866,27.51609,0.1388275
0.0239345,0.8631018,-36.83496,3.801233,0.3899518,0.003186819,-0.9247041,1.621524,26.63447,0.2298082
0.023903,0.368736,-26.42848,0.3971371,0.3853796,0.001979801,-0.9299163,1.630338,26.00275,0.2393009
0.0219752,-0.1726705,-16.7501,-1.752601,0.3867082,0.004180723,-0.9295173,1.626544,25.63466,0.2007872
0.0239023,-0.5924785,-12.9022,-1.778509,0.3831205,0.004011699,-0.9249042,1.612382,25.32627,0.1582767
0.0219658,-0.7378793,-17.70723,-1.374302,0.3738039,0.002912909,-0.9312766,1.596174,24.93732,0.1280891
0.0279376,-0.08986934,-22.10811,-0.249153,0.3717918,0.004653741,-0.9374179,1.593663,24.31967,0.1211283
0.0229026,-0.03956203,-23.29256,2.085127,0.3548624,0.003245068,-0.9391047,1.592757,23.78621,0.1688832
0.0239698,-0.8082904,-20.84533,2.031308,0.3410958,0.002457654,-0.9402583,1.573383,23.28655,0.2175732
0.0239004,-0.5857494,-21.63048,-0.1958804,0.3366481,0.006025322,-0.9473973,1.559383,22.76957,0.2128916
0.022973,0.03466765,-19.55637,-0.7525859,0.3352221,0.00653088,-0.9509659,1.560179,22.3203,0.1956024
0.0219413,-0.4969736,-12.58859,0.3273813,0.32739,0.005500563,-0.948249,1.549275,22.04409,0.2027856
0.0229058,-1.17894,-11.07476,0.2897136,0.321151,0.005583399,-0.9466084,1.522271,21.79042,0.2094217
0.0219411,-0.1126287,-14.87562,-0.9344206,0.3125003,0.007458192,-0.9590811,1.519799,21.46403,0.1889195
0.0259399,0.9001615,-14.58942,-1.224737,0.315142,0.007567643,-0.9553708,1.543149,21.08558,0.15715
0.0258952,0.03837475,-11.143,0.03887405,0.3060963,0.005066953,-0.9526789,1.544143,20.79703,0.1581566
0.0219404,-0.5934581,-14.48162,-0.1383476,0.2940323,0.00477383,-0.9535633,1.531122,20.4793,0.1551212
0.0269611,-0.8904296,-22.82075,-0.8844125,0.2938744,0.006048458,-0.961769,1.507115,19.86403,0.1312765
0.0219067,-0.1122223,-25.78052,0.2957776,0.2873828,0.007788831,-0.9709068,1.504657,19.29926,0.137756
0.0229404,1.829752,-25.68092,1.640765,0.2665989,0.007615495,-0.9774125,1.546632,18.71013,0.1753958
0.0209424,2.863287,-21.91646,0.7228969,0.2602228,0.002671289,-0.9726211,1.606596,18.25115,0.190535
0.0229287,1.121181,-15.78755,-0.3776916,0.2596086,0.002959901,-0.9613494,1.632304,17.88916,0.1818751
0.0219407,-0.6930212,-17.94612,0.1810917,0.2521766,0.00525601,-0.962895,1.617098,17.49541,0.1858483
0.036877,0.9960256,-24.88571,1.319214,0.2352607,0.005837315,-0.9884704,1.653829,16.5777,0.234497
0.0339096,3.017648,-20.36489,2.357328,0.2218316,0.0004335297,-0.9744522,1.756156,15.88713,0.3144331
0.0319196,1.482485,-26.31985,0.6004041,0.2087123,0.0003326451,-0.9682386,1.803476,15.04702,0.3335977
0.0279231,1.91544,-35.85788,0.8522608,0.2028075,0.002942419,-0.9975885,1.856961,14.04575,0.3573955
0.0248946,2.920498,-27.98781,2.835669,0.1784759,-0.002711049,-0.9902012,1.929666,13.34901,0.4279883
0.024953,1.416361,-17.80321,2.067687,0.1581379,-0.006774309,-0.9805481,1.965008,12.90476,0.4795833
0.0249374,-0.7727948,-19.90823,-1.731921,0.1665556,-0.001277324,-0.9936461,1.945737,12.4083,0.4363936
0.0259627,-0.0255349,-19.59808,-0.8878982,0.1541085,-0.000530404,-1.004334,1.945074,11.89948,0.4133414
0.0259011,1.853957,-15.37188,0.438276,0.1374842,-0.003442555,-1.000021,1.993093,11.50133,0.4246932
0.0258928,2.095482,-15.56289,-1.246297,0.1414454,-0.003413494,-0.9833023,2.047351,11.09837,0.3924231
0.0239617,0.2351125,-19.82984,-1.224936,0.1324926,-0.003655287,-0.9897869,2.052985,10.62321,0.3630716
0.0229382,-0.297542,-21.28777,-1.244516,0.1253507,-0.0005228473,-1.006768,2.04616,10.13491,0.3345246
0.0219442,0.5724567,-14.7318,0.09786376,0.1194759,-0.002397359,-1.004278,2.058722,9.81163,0.3366722
0.0258976,0.3402478,-7.164833,0.7699116,0.1087248,-0.006201343,-0.990339,2.067534,9.626079,0.356611
0.0229741,-0.5529155,-11.48741,-0.315847,0.1105995,-0.003962983,-0.9952039,2.054831,9.362165,0.3493547
0.0268938,-0.2214216,-15.48669,0.06264309,0.1039903,-0.001975718,-1.004832,2.048876,8.945669,0.3510395
0.0249708,0.3626492,-8.467834,0.88403,0.09216043,-0.004231653,-1.004133,2.057932,8.734221,0.3731144
0.0209442,-0.2474096,-2.710907,-0.4046811,0.09062628,-0.003913774,-0.9978982,2.05275,8.677443,0.3646387
0.0229052,-1.189608,-0.7146238,-1.49982,0.09357347,-0.003888411,-0.9997008,2.025502,8.661074,0.330285
0.0219746,-1.444254,-0.6900229,-1.280815,0.09952603,-0.001183414,-0.9985064,1.993765,8.64591,0.3021396
0.0219428,-2.001542,-2.361353,-0.1966069,0.09048626,-0.001110638,-0.9972677,1.949845,8.594095,0.2978255
0.0229304,-1.183958,-13.89058,-0.03451625,0.09299432,0.001022306,-1.004209,1.922697,8.275578,0.2970341
0.0219484,1.701626,-18.77601,0.2031825,0.08662331,0.002395352,-1.013103,1.960045,7.863475,0.3014936
0.0278896,4.256025,-18.17335,0.9428042,0.0728983,-0.003457376,-1.00522,2.078744,7.356627,0.327788
0.0239375,3.269024,-12.51837,0.08896431,0.06554522,-0.007867987,-0.9895278,2.156996,7.056969,0.3299176
0.0229665,0.134427,-12.66357,-0.8556646,0.06627736,-0.00492748,-0.9906018,2.160083,6.766131,0.310266
0.0219134,-0.7776012,-14.81891,-0.7314519,0.06073944,-0.002021458,-1.009158,2.143044,6.441399,0.2942374
0.0229781,1.103737,-10.26152,0.09820417,0.05106977,-0.003236577,-1.016639,2.168405,6.205608,0.2964939
0.0219358,1.951837,-4.012278,-0.1326827,0.04694389,-0.009630012,-0.9943017,2.211221,6.117596,0.2935834
0.0239014,0.3315464,-8.08069,-1.089602,0.05975519,-0.006582699,-0.9848089,2.219145,5.924456,0.2675404
0.020978,-0.7586552,-16.75234,-0.392198,0.0451191,-0.004177931,-1.007647,2.20323,5.573025,0.2593129
0.0229321,0.5162079,-15.58054,0.5153336,0.02976071,-0.005270314,-1.019119,2.215067,5.215731,0.2711306
0.0259044,2.650982,-10.59547,-0.2695468,0.03137701,-0.006124998,-0.9996153,2.28374,4.941261,0.2641481
0.0259313,1.173171,-12.11524,0.2658792,0.03298787,-0.007521733,-0.9904121,2.314161,4.627098,0.2710427
0.0299542,-1.310319,-10.21022,-0.1196149,0.01129315,-0.008076754,-1.013602,2.274912,4.321259,0.2674598
0.0229057,-0.5614963,-2.549338,-2.015438,0.02035962,-0.00612615,-1.006981,2.26205,4.262864,0.2212947
0.0239335,-0.07021611,0.09354121,-1.240005,0.02237858,-0.00651675,-1.001934,2.26037,4.265103,0.1916171
0.0239459,-1.206333,-0.2612421,0.2921556,0.01945052,-0.006897687,-1.001727,2.231483,4.258847,0.198613
0.0229554,-1.897007,-0.6586624,0.7206612,0.01619945,-0.006764884,-1.005566,2.187936,4.243727,0.2151561
0.0219158,-1.186261,-0.7598541,0.3667726,0.01609036,-0.005901049,-1.007032,2.161938,4.227075,0.2231942
0.0249667,0.3348802,-0.7333281,0.3503132,0.02068254,-0.004926705,-1.003537,2.170299,4.208766,0.2319404
0.0268888,0.1502509,-1.03205,0.7985868,0.01344668,-0.006329554,-0.9994673,2.174339,4.181015,0.2534134
0.0249074,-0.3443897,-7.673219,-0.16414,0.0252188,-0.003251878,-0.9952577,2.165761,3.989896,0.2493251
0.0219778,-0.234601,-13.54617,0.8720199,0.005336698,-0.002707417,-1.017315,2.160605,3.692181,0.2684902
0.0238987,0.6402867,-5.153086,0.8969748,0.006200171,-0.004606386,-1.006531,2.175907,3.569029,0.2899267
0.0229788,1.045364,-1.314934,0.5104589,0.003008449,-0.005489842,-1.004369,2.199929,3.538813,0.3016565
0.0239322,0.4905423,-0.7252347,-0.2680422,0.002741171,-0.00746303,-1.001567,2.211668,3.521457,0.2952417
0.0229374,-0.4979944,-0.537086,-0.4887056,0.008342177,-0.005607651,-1.001363,2.200246,3.509137,0.284032
0.0288902,-1.119191,-1.14659,0.4369927,0.002640456,-0.007328379,-1.003528,2.167912,3.476012,0.2966568
0.0239371,0.5432947,-10.52471,0.6396864,0.0001410069,-0.0057118,-1.009676,2.180917,3.224081,0.311969
0.0229409,1.492695,-8.919209,1.093328,-0.002374311,-0.006380635,-1.002602,2.215161,3.019466,0.337051
0.0259632,0.553939,-6.064279,0.5974654,-0.007662164,-0.007654338,-0.9982625,2.229543,2.862018,0.3525631
0.0229386,0.3337334,-10.37467,-0.4812205,-0.008304068,-0.00527827,-1.007202,2.237198,2.624038,0.3415246
0.0279245,0.09330954,-4.297466,0.3534223,-0.01175734,-0.006173472,-1.00345,2.239804,2.504033,0.3513937
0.0278989,-0.4738782,-1.03525,0.7043588,-0.0179729,-0.007177855,-1.003533,2.226583,2.475151,0.3710445
0.025928,-0.6181622,-0.8761154,-0.4838115,-0.01248445,-0.004950224,-1.004309,2.210555,2.452435,0.3585003
0.0308926,-0.4149154,-1.990862,0.5354442,-0.01464203,-0.004814983,-1.007766,2.197737,2.390932,0.3750415
0.0278896,0.4976664,-13.90974,1.083534,-0.02752555,-0.008517786,-1.010523,2.211617,2.002995,0.4052609
0.0248868,1.71674,-9.561596,-0.4371459,-0.02415777,-0.004981981,-1.007515,2.254341,1.765038,0.3943817
0.0249333,1.784864,-4.455751,0.03786562,-0.02690025,-0.008456408,-1.000954,2.298844,1.653941,0.3953258
0.0219777,-0.2194655,-1.45454,0.2772973,-0.02999312,-0.009353257,-0.9967074,2.29402,1.621974,0.4014202
0.0239033,-2.461304,-1.865443,-0.1842456,-0.03077543,-0.004419027,-1.004896,2.235187,1.577384,0.3970161
0.0219739,-0.7610343,-11.98337,0.02759216,-0.02645994,-0.001923985,-1.009974,2.218464,1.314062,0.3976224
0.030886,2.868887,-7.298274,0.854325,-0.04037206,-0.007009256,-1.007482,2.307073,1.088648,0.4240091
0.0309158,0.7788689,-1.269785,-0.4532859,-0.04389725,-0.01100724,-0.9961526,2.331152,1.049391,0.4099954
0.0309174,-1.524143,-7.540784,-0.8681342,-0.033711,-0.003409113,-0.9935246,2.284029,0.8162498,0.383155
0.0289462,1.019508,-9.734221,0.6836794,-0.04601374,-0.006735743,-1.015761,2.31354,0.5344812,0.4029449
0.0259324,2.375458,-2.692129,0.6776622,-0.05556588,-0.01152566,-0.9996077,2.375142,0.4646678,0.4205183
0.0239124,0.7614948,-3.515031,-0.3594783,-0.05271719,-0.01070316,-0.9928256,2.393351,0.380615,0.4119223
0.0239344,-0.6621389,-10.49019,-0.0406751,-0.04963525,-0.00729232,-1.007964,2.377503,0.1295385,0.4109488
0.0219397,0.06136294,-9.47441,0.8861893,-0.0610668,-0.009159888,-1.010323,2.37885,-0.07832724,0.4303916
0.0259323,1.137356,-1.860819,0.3264008,-0.06127245,-0.009333353,-1.002727,2.408344,-0.1265825,0.4388559
0.0279255,0.4543361,-0.4233954,-0.5404865,-0.05851896,-0.0100861,-0.9977951,2.421031,-0.1384061,0.4237625
0.028922,-0.6433566,-0.003337403,-0.2187363,-0.05932407,-0.008959229,-1.002578,2.402424,-0.1385026,0.4174362
0.0279636,0.07551081,-0.03889896,-0.1978553,-0.05968733,-0.008592171,-1.002947,2.404536,-0.1395904,0.4119035
0.0279636,0.2326311,-0.9568719,0.2239102,-0.06400046,-0.005578966,-1.000037,2.411041,-0.1663479,0.4181648
0.0269267,-0.04324628,-5.889989,1.206993,-0.06805544,-0.01104914,-1.006376,2.409876,-0.3249459,0.4506652
0.0258944,0.3160354,-1.860581,0.2150477,-0.0672283,-0.01020473,-1.004276,2.41806,-0.3731245,0.4562337
0.0249754,0.8725221,-0.4291631,-0.5373169,-0.06349114,-0.009235014,-1.000669,2.439852,-0.383843,0.442814
0.0298776,-0.1989771,-0.3233362,0.5072032,-0.06704075,-0.01244039,-0.9984054,2.433907,-0.3935035,0.457968
0.0269716,-1.441989,-0.3738302,0.271502,-0.06295875,-0.008471671,-1.004948,2.395014,-0.4035864,0.4652908
0.0239279,-0.4540473,-0.4729692,0.4660055,-0.06429256,-0.00835066,-1.005698,2.384149,-0.4149035,0.4764414
0.0248992,0.5420105,-0.2967679,1.123524,-0.06459066,-0.008751602,-1.000679,2.397645,-0.4222928,0.5044162
0.0229375,-0.3078703,-0.1648133,0.8878781,-0.07094622,-0.01135829,-0.9985681,2.390583,-0.4260732,0.5247819
0.0229833,-1.218163,-0.3324704,-0.5305721,-0.06662713,-0.007392582,-1.004494,2.362586,-0.4337144,0.5125877
0.0209785,-0.2616886,-0.3950068,-0.5321708,-0.06196816,-0.005766029,-1.007246,2.357096,-0.4420011,0.5014235
0.0249182,1.034904,-0.4020843,0.5047711,-0.06887217,-0.009880011,-0.9991455,2.382884,-0.4520203,0.5140015
0.0279584,-0.5194841,-0.64743,0.1691078,-0.06996354,-0.009391681,-0.9998909,2.36836,-0.4701214,0.5187295
0.0229363,-0.5135654,-6.6511,0.1188354,-0.05560566,-0.007388969,-0.9974959,2.356581,-0.622673,0.5214552
0.0249349,0.6481953,-8.287673,0.6713823,-0.07554574,-0.009694113,-1.013322,2.372743,-0.8293253,0.538196
0.0239408,1.065448,-2.047717,-0.160665,-0.07508671,-0.009782414,-0.9997108,2.398251,-0.8783493,0.5343496
0.0239216,0.213222,-0.3919363,-0.3695628,-0.06998478,-0.009526878,-0.9979308,2.403352,-0.8877251,0.525509
0.0209533,-0.8353185,0.08700818,0.6697953,-0.07422849,-0.009898222,-1.000069,2.385849,-0.8859019,0.5395434
0.0249334,-1.260678,-0.0005240357,0.5183742,-0.07761766,-0.008796724,-1.002799,2.354416,-0.885915,0.5524683
0.0229656,-0.6583595,-0.4382042,-0.008762557,-0.07345711,-0.007913017,-1.004336,2.339296,-0.8959786,0.5522671
0.0249645,0.5256965,-0.4564323,0.08605651,-0.07251802,-0.006951722,-1.001376,2.35242,-0.9073732,0.5544154
0.0259632,0.1253099,-0.2479607,0.3775927,-0.07556411,-0.008309822,-1.001177,2.355674,-0.9138111,0.5642189
0.0219436,-0.2836195,-0.3303562,0.01117169,-0.07493855,-0.008175182,-1.00264,2.34945,-0.9210603,0.5644641
0.0229291,0.3076302,-0.5531095,-0.07438105,-0.07394911,-0.0075506,-1.004094,2.356503,-0.9337426,0.5627586
0.0209536,0.7426945,-0.2590891,0.1551393,-0.07374881,-0.008554832,-0.9998085,2.372066,-0.9391714,0.5660093
0.0239286,-0.2185765,-0.02605124,0.5696687,-0.07569794,-0.009418904,-0.9997157,2.366835,-0.9397948,0.5796407
0.0219475,-0.8392908,-0.2471154,0.4280398,-0.07771999,-0.00927492,-1.004397,2.348415,-0.9452183,0.5890352
0.0219454,0.3431585,-0.7121866,-0.3468491,-0.0750332,-0.007180247,-1.005453,2.355946,-0.9608476,0.5814234
0.0219053,2.643583,-6.527541,-0.05552155,-0.0672056,-0.009896993,-0.9954481,2.413854,-1.103835,0.5802072
0.0269268,2.197426,-9.249576,1.361876,-0.08568527,-0.01361663,-0.9994985,2.473024,-1.352897,0.6168782
0.0219748,1.167049,-7.176233,0.6802569,-0.08095138,-0.01214031,-0.9979598,2.49867,-1.510593,0.6318266
0.0299215,0.3673355,-1.773906,-0.626276,-0.08239895,-0.0106688,-0.9999285,2.509661,-1.563671,0.6130875
0.0279237,0.006484818,1.455784,-0.4559165,-0.08724944,-0.01042919,-1.00256,2.509842,-1.52302,0.6003566
0.026959,-0.5605102,5.703269,-1.017741,-0.07834338,-0.0119781,-1.002217,2.494732,-1.369266,0.5729194
0.024902,0.1105402,10.593,-3.719275,-0.08513752,-0.01511984,-0.9933733,2.497484,-1.105479,0.480302
0.0249675,-0.5419166,10.38791,-4.690337,-0.07107013,-0.01087053,-0.9985662,2.483954,-0.8461187,0.363196
0.0248996,-0.2833919,11.03358,-2.554606,-0.05798897,-0.006020104,-1.003031,2.476898,-0.5713869,0.2995874
0.0339298,1.813615,10.9242,1.139247,-0.07812791,-0.01424619,-1.00983,2.538434,-0.2007311,0.3382418
0.0229502,2.217736,10.33304,-1.493378,-0.06169581,-0.0136528,-0.9960197,2.589331,0.03641416,0.3039685
0.0258931,0.6242594,7.998518,-1.747745,-0.05446451,-0.01213033,-0.9997211,2.605495,0.2435206,0.2587139
0.0239025,0.9146611,9.558811,-2.602865,-0.06383423,-0.01306576,-1.012345,2.627358,0.4720001,0.1964989
0.021977,2.48357,14.95527,-3.478658,-0.03314222,-0.008987238,-0.998827,2.681939,0.8006721,0.1200485
0.0229012,1.418178,16.70004,-0.5479186,-0.03109951,-0.01291234,-0.9946615,2.714417,1.183123,0.1075005
0.0209773,-1.570739,17.17037,1.672726,-0.03774934,-0.01572218,-0.9989295,2.681468,1.543311,0.1425898
0.0229042,-2.184787,20.3898,-0.8691368,-0.02731043,-0.01597507,-1.027242,2.631427,2.010323,0.1226829
0.0289216,-0.9251523,44.22309,-3.304125,-0.002833457,-0.01167686,-1.014289,2.60467,3.289325,0.02712228
0.0269295,-1.63014,54.37056,-1.375672,0.012693,-0.01657623,-0.9828766,2.560771,4.753497,-0.009923887
0.0249575,-3.903096,42.43134,-0.5069764,0.03575069,-0.01742307,-1.005033,2.463359,5.812477,-0.02257675
0.0229126,-5.977454,48.48286,-1.37143,0.04874957,-0.0168816,-1.022523,2.3264,6.923346,-0.05399977
0.0239073,-5.975878,74.69138,-4.804431,0.07598019,-0.01289583,-1.01579,2.183533,8.709015,-0.1688608
0.0239586,-6.580967,84.05296,-5.176445,0.1377123,-0.002495847,-0.9769674,2.025862,10.72281,-0.2928811
0.0239357,-8.221747,66.81578,-2.358281,0.1524097,0.005366575,-0.9742826,1.829069,12.32209,-0.3493282
0.0209089,-8.189716,49.70798,0.3877018,0.1689643,0.009973709,-0.9948874,1.657831,13.36143,-0.3412218
0.0269006,-3.415172,50.14853,0.3001845,0.1971178,0.01212021,-1.004704,1.565961,14.71045,-0.3331467
0.0259685,0.2772426,54.91016,-0.3838201,0.2159514,0.008712768,-0.9750795,1.573161,16.13639,-0.3431139
0.0239353,-0.9373362,52.61112,-0.6704878,0.2381185,0.01019039,-0.9618064,1.550725,17.39565,-0.3591622
0.0229426,-2.805416,42.53195,-0.162729,0.2574619,0.009660646,-0.9791031,1.486362,18.37144,-0.3628956
0.0219389,-1.984481,44.25217,0.3839798,0.2812115,0.007740952,-0.9863044,1.442824,19.34229,-0.3544715
0.0258962,-0.3189588,59.99928,2.012835,0.3039235,0.005927279,-0.9550284,1.434565,20.89604,-0.3023468
0.0219672,-0.1608383,54.12405,4.649652,0.3121963,-0.002442214,-0.939173,1.431031,22.08499,-0.2002069
0.0239097,-0.5988358,35.95827,2.920893,0.3249083,-0.002857511,-0.9414726,1.416713,22.94474,-0.1303693
0.0249681,-0.6800734,31.47732,-0.2578264,0.3358122,-8.646119E-05,-0.9468368,1.399733,23.73067,-0.1368067
0.0269175,-1.482346,44.64029,-1.724546,0.3707253,0.005401808,-0.9404901,1.359832,24.93228,-0.1832272
0.0229151,-1.527648,52.09168,-1.791819,0.3903186,0.01229396,-0.917037,1.324826,26.12596,-0.2242869
0.0239713,-1.023895,33.52544,-0.264414,0.3982994,0.01228889,-0.910811,1.300282,26.92961,-0.2306252
0.0219397,-0.3355097,19.03813,-0.188275,0.4019215,0.01406952,-0.9190899,1.292921,27.3473,-0.2347559
0.023902,-0.2652236,23.08783,-1.305124,0.4084871,0.01305871,-0.9278425,1.286582,27.89915,-0.265951
0.0209431,-0.9889262,42.97431,-3.056551,0.4244253,0.01413578,-0.9136672,1.26587,28.79916,-0.3299646
0.0229392,-1.166189,43.42332,-2.445347,0.4509549,0.01529836,-0.886737,1.239119,29.79526,-0.3860589
0.0229156,-1.056978,20.3359,0.4614978,0.4603481,0.01289463,-0.8860264,1.214898,30.26127,-0.3754834
0.0269248,0.413768,5.174873,1.74998,0.45279,0.007012479,-0.9062616,1.226038,30.4006,-0.3283656
0.0239369,0.8662817,18.1858,-0.2386357,0.4535884,0.0009372924,-0.9100937,1.246774,30.83591,-0.3340778
0.0219433,-1.125721,41.59334,-3.197035,0.4865506,0.009624266,-0.8720013,1.222072,31.74861,-0.4042313
0.024931,-2.840952,35.64746,-1.238881,0.4969024,0.01301545,-0.8608199,1.151245,32.63733,-0.4351178
0.0209446,-2.37124,14.37977,1.524572,0.5014694,0.01160018,-0.8651869,1.10158,32.93851,-0.4031863
0.0209449,-0.7054483,3.472689,1.580739,0.4814304,0.009308431,-0.8830978,1.086805,33.01125,-0.3700778
0.0229039,-0.3191682,24.40383,-2.442267,0.4957734,0.01480175,-0.8915882,1.079494,33.57019,-0.4260153
0.0229721,-1.171974,52.00195,-5.170763,0.5251402,0.02302098,-0.8590588,1.052572,34.76479,-0.5447986
0.024899,-1.322059,39.54474,-1.417641,0.5483604,0.02697337,-0.8316593,1.019654,35.74941,-0.5800964
0.0299187,-0.1393035,7.754314,4.010682,0.5411771,0.01906718,-0.8409946,1.015486,35.98141,-0.460102
0.0239352,1.479347,4.59676,1.764163,0.5434853,0.01498456,-0.8496976,1.050894,36.09143,-0.4178764
0.0239379,1.093135,23.98439,-1.661957,0.547985,0.01303916,-0.8478177,1.077062,36.66557,-0.4576602
0.021941,0.4317871,32.52945,-2.185771,0.5637792,0.01385759,-0.8315622,1.086536,37.3793,-0.5056182
0.0229296,0.6279809,20.61023,0.5914598,0.576054,0.01344684,-0.8164611,1.100935,37.85188,-0.4920562
0.0279336,1.910685,5.368728,2.892621,0.5672902,0.01087174,-0.8391398,1.154307,38.00185,-0.4112549
0.0319129,1.460744,27.78261,-0.4766513,0.5766101,0.007616356,-0.8205396,1.200924,38.88847,-0.4264662
0.0299227,-1.054122,39.96332,-2.47483,0.6017243,0.01496938,-0.7891712,1.169382,40.08428,-0.5005198
0.02695,-1.541646,13.6921,0.2031471,0.6168953,0.01739161,-0.7942405,1.127834,40.45329,-0.495045
0.0269282,-0.5948541,2.158056,2.433951,0.596324,0.01433652,-0.807873,1.111816,40.5114,-0.4295031
0.0259065,0.796615,13.49933,-1.061907,0.5965436,0.01170384,-0.8157334,1.132453,40.86112,-0.4570134
0.0239696,-0.1355971,32.95983,-4.079009,0.6227701,0.01674557,-0.7848576,1.129203,41.65115,-0.5547855
0.0239411,-1.172252,20.01865,-1.446902,0.6491686,0.02120616,-0.758274,1.101138,42.13042,-0.589426
0.0219416,-2.440442,2.59269,2.946161,0.6208419,0.01540467,-0.7864838,1.047591,42.18731,-0.5247825
0.0219418,-0.1643304,1.155711,0.7079824,0.6235363,0.01358794,-0.7868313,1.043985,42.21267,-0.5092481
0.0269036,1.071696,9.93542,-1.919822,0.6291606,0.01031771,-0.786908,1.072818,42.47997,-0.5608982
0.0289592,-0.09449692,18.33061,-1.89646,0.6419665,0.01120825,-0.7651724,1.070081,43.01081,-0.6158181
0.0268929,-0.4591481,2.926589,1.156212,0.6469567,0.01159188,-0.7643735,1.057733,43.08951,-0.5847242
0.030951,-0.908399,-0.7988927,1.950592,0.6294142,0.01318852,-0.7778144,1.029617,43.06479,-0.5243515
0.0309174,0.7765371,0.5681897,-1.782181,0.6493509,0.02209979,-0.7640267,1.053626,43.08235,-0.5794519
0.025913,-1.386749,-0.3313051,0.7908543,0.6473388,0.0207813,-0.769086,1.017691,43.07376,-0.5589585
0.0249141,-1.647039,-0.4062394,1.498544,0.6380108,0.02151122,-0.7750782,0.9766566,43.06364,-0.5216236
0.0239689,0.2916578,0.6119874,-0.4197897,0.6453015,0.02030424,-0.7721785,0.9836473,43.07831,-0.5316855
0.0269192,0.9607445,0.3292986,-0.08448846,0.6489063,0.01845251,-0.7666314,1.00951,43.08718,-0.5339599
0.0229411,-0.2706969,-0.1686535,1.266858,0.643843,0.01197922,-0.7696795,1.0033,43.08331,-0.5048968
0.0239434,-0.6131747,0.3325129,1.145611,0.6416591,0.01087482,-0.7703267,0.9886183,43.09127,-0.4774669
0.0219062,-0.4693022,0.5394921,0.8103181,0.6474876,0.01308851,-0.7687695,0.9783376,43.10309,-0.459716
0.022939,-0.3558584,0.05855054,2.143399,0.6471571,0.01274114,-0.7718403,0.9701746,43.10443,-0.4105485
0.0219738,0.646678,-0.2104566,2.525888,0.6317301,0.01111781,-0.7769424,0.9843846,43.09981,-0.3550451
0.0239019,2.447301,0.7002175,-0.5688205,0.6386065,0.01281692,-0.7707182,1.04288,43.11654,-0.368641
0.0219755,2.136451,0.9787604,-1.325883,0.6519338,0.0152716,-0.7635521,1.089829,43.13805,-0.3977779
0.0259326,0.3068582,-0.0204069,0.9048821,0.6457738,0.01638108,-0.7693805,1.097787,43.13752,-0.374312
0.0229346,0.4495491,-0.2875796,1.041587,0.6404416,0.01613265,-0.772389,1.108097,43.13092,-0.3504236
0.0239285,1.330751,0.8505916,-0.2582636,0.6449233,0.0149107,-0.7691559,1.13994,43.15128,-0.3566035
0.0229463,0.9772512,1.156613,0.06228108,0.6505039,0.01406151,-0.7661519,1.162364,43.17782,-0.3551744
0.0219767,-0.02830421,0.4418795,1.404777,0.6423817,0.008425063,-0.7686187,1.161742,43.18753,-0.324302
0.0219413,-0.1621139,0.1547561,0.9002228,0.6442429,0.008574985,-0.7715368,1.158185,43.19093,-0.30455
0.0229062,0.6804197,0.2507856,0.2129842,0.6468944,0.01064834,-0.7694064,1.173771,43.19667,-0.2996713
0.0229382,0.6784061,0.1033811,0.5648749,0.6439556,0.01123992,-0.7685801,1.189333,43.19904,-0.2867141
0.0289553,0.2592575,0.4402449,-0.4395505,0.6434429,0.009998927,-0.7658982,1.196839,43.21179,-0.2994414
0.026929,-0.3933672,0.4927444,-0.365083,0.6477623,0.01151735,-0.7709833,1.186247,43.22506,-0.3092727
0.0268924,0.477154,0.6420792,0.3095399,0.6475039,0.01003903,-0.7691581,1.199078,43.24232,-0.3009484
0.0229376,0.6542118,0.7868442,0.8912219,0.6457664,0.00805521,-0.7657608,1.214084,43.26037,-0.280506
0.0229401,-0.3455454,0.6048936,0.9181755,0.6448809,0.007175537,-0.7625906,1.206158,43.27425,-0.2594429
0.0219388,-1.596094,0.3176021,0.5151147,0.6453375,0.01102553,-0.7721195,1.171141,43.28122,-0.2481419
0.022905,-2.070873,9.751121,-0.4138851,0.6348274,0.01226209,-0.7816774,1.123708,43.50457,-0.257622
0.0239751,0.4846836,13.46168,-2.23923,0.6581182,0.01625712,-0.7606508,1.135328,43.82732,-0.3113077
0.022899,1.274204,8.301664,-0.8639756,0.6637356,0.01388861,-0.7494442,1.164506,44.01742,-0.3310919
0.0229383,-0.4034239,1.832533,1.663022,0.6585278,0.009971024,-0.7513732,1.155252,44.05945,-0.292945
0.0259318,-1.794971,0.06495631,0.713945,0.6428739,0.008674674,-0.7691013,1.108705,44.06114,-0.2744311
0.0219407,-0.1699878,6.182036,-2.808565,0.6556054,0.01084104,-0.7740796,1.104976,44.19678,-0.336053
0.0239629,1.204162,18.54409,-3.734115,0.671232,0.01456828,-0.7547415,1.133831,44.64115,-0.4255332
0.0219509,1.325764,10.2152,-1.133098,0.6738375,0.01029978,-0.7352495,1.162933,44.86538,-0.4504057
0.0239013,-1.368891,-0.1302676,1.294098,0.6705315,0.0107172,-0.7452157,1.130214,44.86227,-0.4194751
0.0209522,-1.867161,-1.590301,2.08015,0.6663804,0.01370591,-0.7568904,1.091093,44.82895,-0.3758914
0.0239024,-0.2171671,-0.6134163,2.58508,0.666212,0.01343251,-0.7526041,1.085902,44.81428,-0.3141018
0.0219418,0.114823,-0.07126264,2.738993,0.6631206,0.01045624,-0.7477592,1.088422,44.81272,-0.2540033
0.0289221,-0.9552741,-0.4928637,1.352897,0.6611643,0.01068922,-0.7474137,1.060793,44.79846,-0.2148747
0.0339076,-1.205936,0.1394846,-1.035413,0.661362,0.01318298,-0.7551165,1.019903,44.80319,-0.249983
0.0309357,0.3942705,1.311269,-1.971741,0.6703267,0.01453331,-0.7500949,1.0321,44.84376,-0.3109802
0.0269462,0.02599932,0.4735132,0.2835799,0.6731107,0.01330948,-0.7477405,1.0328,44.85652,-0.3033388
0.0258944,-0.422663,-0.2488434,1.629862,0.6597565,0.01108337,-0.7525764,1.021856,44.85007,-0.2611345
0.0219429,-0.1379846,0.5013267,-0.1658928,0.6663139,0.01060641,-0.7498031,1.018828,44.86108,-0.2647747
0.0219397,-0.1874599,1.282961,-0.9730016,0.6685091,0.01196234,-0.7502573,1.014715,44.88923,-0.2861221
0.0259286,-0.2613352,0.7382835,0.1902027,0.6715059,0.01304594,-0.7459232,1.007939,44.90837,-0.2811904
0.0268952,-0.9864532,-0.4947959,1.557598,0.6653169,0.01254709,-0.7485761,0.9814081,44.89506,-0.2392984
0.022939,-0.8415634,0.1485972,0.2861845,0.6603907,0.01244698,-0.7552559,0.9621035,44.89847,-0.2327337
0.0239631,0.4457239,1.355776,-1.460057,0.6720337,0.01564209,-0.7504342,0.9727844,44.93096,-0.2677211
0.0209185,0.4882048,0.7957805,-0.02022423,0.6711578,0.01305497,-0.7475209,0.9829969,44.94761,-0.2681442
0.0229044,0.19863,0.2416964,1.263106,0.6671579,0.01268472,-0.749656,0.9875464,44.95314,-0.2392135
0.02098,0.2389586,0.493222,1.543486,0.6702976,0.01329204,-0.7470394,0.9925598,44.96349,-0.2068312
0.0229384,-0.1276768,0.246994,1.844486,0.66531,0.01156391,-0.7476024,0.9896311,44.96915,-0.1645216
0.0209423,-0.2255825,0.48971,0.3513934,0.6597479,0.009487338,-0.7512391,0.9849069,44.97941,-0.1571626
0.0239015,-0.1570792,1.288249,-1.657624,0.6711624,0.01122217,-0.7472883,0.9811525,45.0102,-0.1967823
0.0289256,-1.631278,7.494106,0.9116856,0.6624541,0.01355165,-0.7547328,0.9339668,45.22697,-0.1704113
0.0249693,-0.1252699,3.728974,0.5486865,0.6712636,0.01231157,-0.7458087,0.9308388,45.32008,-0.156711
0.0248952,-0.2767655,-0.3454798,0.6664322,0.6750826,0.01105491,-0.7378033,0.9239487,45.31148,-0.14012
0.0229747,-1.740756,-1.251005,0.470512,0.663891,0.01133947,-0.7515436,0.8839554,45.28274,-0.1293101
0.0278911,0.1463839,1.285,-2.357247,0.6678163,0.01651038,-0.7553827,0.8880382,45.31858,-0.1950563
0.0299526,1.687337,8.915827,-1.23289,0.67995,0.01285657,-0.7483959,0.9385783,45.58563,-0.2319846
0.0239023,0.2862731,6.767318,0.08361781,0.6846729,0.01001934,-0.7223716,0.9454209,45.74738,-0.2299859
0.0269627,-3.011134,-1.488438,1.632304,0.6786019,0.01076624,-0.7470783,0.8642327,45.70725,-0.1859746
0.0249229,-0.992223,-0.4921276,0.8621833,0.6697488,0.01406032,-0.7528019,0.8395036,45.69499,-0.1644865
0.0229521,2.097912,1.136863,-0.8585207,0.6809353,0.01573064,-0.7392933,0.8876551,45.72108,-0.1841913
0.0229089,0.9286993,-0.1319171,0.4968689,0.6763806,0.01103466,-0.7338652,0.9089305,45.71806,-0.1728086
0.0229646,-1.143897,-1.126164,0.7115054,0.6743827,0.01094843,-0.7406318,0.8826614,45.6922,-0.1564692
0.0259261,-0.9359321,-0.8012224,0.3938419,0.6790574,0.01442008,-0.745454,0.8583964,45.67142,-0.1462584
0.0229413,0.1352919,0.2208322,1.091092,0.6749011,0.01415086,-0.7445258,0.8615001,45.67649,-0.1212273
0.0219425,1.073444,1.028586,0.4113092,0.676195,0.01278202,-0.7397391,0.8850542,45.69906,-0.1122022
0.0229388,0.5048582,0.5606307,0.1156595,0.6742195,0.01239149,-0.7374369,0.896635,45.71192,-0.1095491
0.0269194,-0.4266282,0.5694073,-0.6853254,0.671095,0.01240522,-0.7416424,0.8851504,45.72725,-0.1279976
0.0229497,0.2557787,1.480236,-1.925393,0.6849915,0.01662447,-0.7424247,0.8910205,45.76122,-0.1721848
0.0248965,1.018019,0.6550488,0.01311277,0.6842105,0.01365444,-0.7369388,0.9163656,45.77753,-0.1718584
0.0249336,0.1586425,-0.6008072,1.646917,0.6747266,0.009957862,-0.7383056,0.9203211,45.76255,-0.1307948
0.0219768,-0.1568329,0.3950839,-0.1572048,0.6781635,0.01121028,-0.7407066,0.9168744,45.77123,-0.1342497
0.0219082,0.06955824,0.8307359,-0.7147052,0.6815525,0.01353515,-0.7391784,0.9183983,45.78943,-0.1499076
0.0239014,-0.4184214,-0.1342639,0.5888981,0.6782668,0.01144432,-0.7391102,0.9083974,45.78622,-0.1358321
0.0229387,-0.6252611,-0.523064,0.7505972,0.6718475,0.009606447,-0.7425106,0.8940548,45.77422,-0.1186144
0.0239749,0.1533057,0.3311526,-0.5692822,0.6762369,0.01084928,-0.7428163,0.8977302,45.78216,-0.1322629
0.0268946,0.6052434,0.5705763,-1.290409,0.6804224,0.0148567,-0.7367315,0.914008,45.79751,-0.1669679
0.028923,-0.3911359,0.09721144,-0.626033,0.6797132,0.01364332,-0.738342,0.9026952,45.80032,-0.1850746
0.0229751,-0.857192,-0.1022631,0.1372804,0.6823974,0.0153693,-0.7390329,0.8830011,45.79797,-0.1819206
0.0248967,-0.6157109,-0.09134169,0.9853098,0.6759729,0.01548631,-0.7426649,0.8676719,45.7957,-0.1573897
0.020943,0.2522724,0.2357365,0.4213363,0.6779178,0.01536884,-0.7420292,0.8729553,45.80063,-0.1485656
0.0239065,0.766747,-0.008147742,0.1782227,0.6783499,0.01301219,-0.7361565,0.8912855,45.80044,-0.1443049
0.0209776,-0.271079,-0.2913674,0.2962669,0.6779937,0.01093606,-0.7362977,0.8855989,45.79433,-0.13809
0.0249359,-1.030469,-0.3196343,0.2137906,0.6774602,0.01159129,-0.7434092,0.8599032,45.78636,-0.1327589
0.0249313,0.02656525,0.9162197,-0.6447159,0.6757308,0.0126717,-0.7418293,0.8605655,45.8092,-0.1488325
0.0249309,1.037767,0.8564674,-1.469381,0.6812868,0.01217481,-0.7367395,0.886438,45.83055,-0.1854655
0.0239104,0.6827377,-1.271264,-0.3958416,0.6813274,0.01427965,-0.7411372,0.9027625,45.80016,-0.1949302
0.021977,1.036298,-2.431113,0.5885771,0.6779253,0.0118245,-0.7414407,0.9255372,45.74673,-0.1819951
0.0309172,0.9325993,-3.324035,1.999164,0.6849489,0.01268273,-0.7371817,0.9543706,45.64396,-0.1201865
0.0269268,0.3090394,-7.627522,5.285886,0.6780878,0.01087056,-0.7447549,0.9626921,45.43857,0.02214549
0.0259313,0.5251387,-13.68469,6.585915,0.6746996,0.005976324,-0.7454428,0.9763096,45.08371,0.1929268
0.024929,0.3105277,-18.04978,4.834214,0.6583241,0.006078218,-0.7536089,0.9840508,44.63375,0.313439
0.0278882,-0.3581081,-16.6465,2.802114,0.6544418,0.005461072,-0.755254,0.9740638,44.16951,0.3915848
0.022972,-1.179125,-14.35698,1.547509,0.6450324,0.002543697,-0.7636013,0.9469769,43.8397,0.4271342
0.0239026,-1.480938,-13.87072,-0.5388463,0.6460732,0.004472315,-0.7591626,0.9115787,43.50815,0.4142544
0.021977,-2.292725,-18.20577,-0.7659887,0.6537859,0.004891701,-0.7618851,0.8611915,43.10804,0.3974203
0.0298843,0.2940103,-39.64502,1.462442,0.6342163,0.01279732,-0.7707717,0.8699777,41.92328,0.4411243
0.0239367,3.07724,-62.81557,4.524572,0.6157796,0.00428178,-0.7879705,0.9436367,40.41968,0.5494276
0.0209825,3.347996,-72.16434,6.686589,0.5836957,0.001708391,-0.8084816,1.013886,38.90549,0.689729
0.0229387,3.106135,-69.53712,3.426206,0.5488499,-0.0007292004,-0.8329477,1.085137,37.3104,0.7683217
0.0239451,0.9430237,-55.21704,-1.761367,0.5338179,-0.00147668,-0.8409808,1.107718,35.98822,0.7261456
0.0259295,-2.533805,-39.48788,-4.596622,0.5350851,0.0008826749,-0.8460974,1.042017,34.96432,0.6069574
0.0229384,-3.177128,-40.03677,-2.486476,0.5175858,0.001086169,-0.8519475,0.969139,34.04594,0.5499216
0.0239017,-1.878928,-52.3321,-0.1557135,0.5034907,0.004308839,-0.8688899,0.9242294,32.79512,0.5461998
0.0249676,-0.8127817,-64.05616,2.1445,0.4765855,0.004778812,-0.8845364,0.9039361,31.19579,0.5997428
0.0239277,-0.7708811,-62.37228,1.140174,0.4482827,0.0049642,-0.8950536,0.8854907,29.70336,0.6270246
0.0229465,-1.407434,-60.72337,0.1951689,0.4360828,0.00522472,-0.9058645,0.853195,28.30997,0.631503
0.0229319,-2.165138,-61.18717,1.66954,0.4207934,0.00985248,-0.9145991,0.8035443,26.90684,0.6697888
0.0219398,-2.135457,-62.38449,3.146309,0.3711408,0.003402365,-0.9332669,0.7566928,25.53813,0.7388182
0.0259059,-0.2160508,-58.89316,0.3546886,0.356533,0.004404963,-0.9471664,0.7510958,24.01245,0.7480067
0.0279244,0.6882012,-53.42633,-0.7994967,0.3378089,0.00134508,-0.9404286,0.7703134,22.52055,0.7256812
0.0249614,-1.786139,-49.07276,-0.3986095,0.3174643,0.001756427,-0.9427572,0.7257289,21.29563,0.7157314
0.0239464,-2.50169,-48.12315,-1.068761,0.3023269,0.005129899,-0.9647369,0.6658224,20.14325,0.6901384
0.022938,-0.5216203,-48.32798,0.0387467,0.281284,0.01449146,-0.9732637,0.6538575,19.03471,0.6910272
0.0219774,0.5404196,-43.80599,1.258986,0.2554924,0.006630779,-0.9654193,0.6657345,18.07196,0.7186964
0.0219397,0.217696,-41.03514,0.1822322,0.2384914,0.004517797,-0.9714019,0.6705106,17.17167,0.7226945
0.0239278,0.6706335,-45.80286,-1.761182,0.2322533,0.01047511,-0.9719271,0.6865574,16.0757,0.6805533
0.0229155,1.614708,-54.02542,-0.1010126,0.2194659,0.01062395,-0.9847072,0.7235593,14.83768,0.6782386
0.0319473,2.562942,-51.72264,1.955946,0.1675607,0.00119236,-0.9971715,0.8054383,13.18528,0.7407258
0.0249323,2.919413,-35.79821,-0.7101139,0.1532145,0.001032292,-1.00127,0.878226,12.29275,0.723021
0.0219066,2.959661,-22.97423,-1.876683,0.1554743,0.001742299,-0.9963343,0.9430621,11.78946,0.6819092
0.024968,1.43054,-17.2444,-1.228799,0.1412273,-0.0007067379,-0.9865958,0.9787799,11.35891,0.6512285
0.0209441,0.5001371,-20.1431,-1.527532,0.135683,0.002978928,-0.99387,0.9892548,10.93703,0.6192358
0.0229056,0.4422494,-20.11121,-0.4767373,0.1294564,0.002163322,-1.004003,0.9993848,10.47637,0.6083158
0.021965,1.243494,-16.43926,0.4368828,0.1188514,0.001801013,-0.9934701,1.026698,10.11528,0.6179119
0.0239455,0.3727352,-16.24102,0.4511229,0.1130587,2.534315E-05,-0.987424,1.035623,9.726381,0.6287143
0.0239314,-0.8090705,-18.23748,-1.00033,0.1033571,0.002168093,-1.004198,1.016261,9.289933,0.604775
0.0249365,0.9175726,-16.39655,-0.9352776,0.101679,0.007073092,-1.008597,1.039142,8.881061,0.5814525
0.0219421,2.86424,-15.11529,0.6142396,0.0945906,0.003728209,-1.006132,1.10199,8.549399,0.5949302
0.0239345,2.683701,-11.61234,1.218194,0.08398461,-0.0004283432,-0.994155,1.166223,8.271464,0.624087
0.0229404,0.6920016,-9.811499,0.1002899,0.07913448,-0.001289899,-0.9964265,1.182098,8.046385,0.6263877
0.0199798,0.3090239,-13.06878,-0.9129862,0.08685352,0.003294063,-1.001204,1.188272,7.785273,0.6081464
0.021933,1.65987,-15.56233,0.9181606,0.07597873,-0.0004876675,-1.009085,1.224678,7.443944,0.6282845
0.0229477,3.331227,-12.31324,0.5829272,0.05971769,-0.006459142,-1.00344,1.301122,7.161384,0.6416613
0.0209459,3.315399,-10.24544,-1.079539,0.06533145,-0.007239006,-0.9924679,1.370566,6.946784,0.6190494
0.0249324,0.8116101,-12.17072,-1.059525,0.06232219,-0.007595885,-0.9959391,1.390801,6.643339,0.5926329
0.0249677,-0.1393337,-13.36289,-0.1411544,0.05473204,-0.005983309,-1.004969,1.387322,6.309698,0.5891086
0.0239024,0.6875741,-10.81132,0.3526336,0.04127806,-0.00795187,-1.011888,1.403757,6.051281,0.5975374
0.0299435,1.503508,-8.857651,-0.5971916,0.04387953,-0.006104193,-0.9941921,1.448777,5.786052,0.5796554
0.0229142,1.252408,-15.69864,-1.000077,0.04105367,-0.001773204,-1.004861,1.477475,5.426331,0.5567394
0.0229149,2.390222,-19.62554,-0.459564,0.03233901,-0.002262163,-1.010731,1.532247,4.976613,0.5462086
0.0279243,2.632569,-9.597409,0.2967415,0.0185697,-0.006917899,-0.9992864,1.60576,4.708612,0.5544949
0.0269267,-0.205987,-2.241054,-1.628963,0.020544,-0.006895247,-1.001346,1.600213,4.648268,0.5106323
0.0329472,-1.631275,-1.593979,-1.843114,0.02750706,-0.005755684,-1.002724,1.546467,4.595751,0.4499068
0.0288871,-1.132782,-1.787593,-0.3258162,0.0165849,-0.008587035,-1.006677,1.513744,4.544112,0.440495
0.0268924,1.460339,-11.94777,-0.6192939,0.0205119,-0.007575775,-1.009196,1.553016,4.222808,0.4238406
0.0239356,3.575828,-16.50729,0.8809565,0.003846378,-0.01362148,-1.011034,1.638606,3.827696,0.4449269
0.0219656,2.703964,-6.728932,-0.126672,0.001846105,-0.01544616,-0.9950134,1.698,3.679891,0.4421444
0.0239456,0.005545098,-6.145805,-0.8305058,0.01260519,-0.009018247,-0.9996186,1.698133,3.532726,0.4222575
0.0239012,0.4321727,-11.10441,0.2969163,0.0008171764,-0.01105343,-1.01375,1.708462,3.267317,0.4293541
0.0269624,0.6232285,-3.287495,0.5013092,-0.009321054,-0.01191581,-1.001131,1.725266,3.178678,0.4428706
0.027918,-0.9290873,-1.289109,-1.537824,-0.004289494,-0.007224205,-1.005573,1.699328,3.142689,0.3999376
0.0239433,-0.8329756,-1.044732,-1.7107,0.0009607431,-0.004382358,-1.007083,1.679384,3.117675,0.3589778
0.0269294,0.1168764,-0.8501957,-0.2722333,-0.003345121,-0.007238711,-1.002742,1.682531,3.094779,0.3516468
0.0229385,-0.6135462,-1.251823,-0.5923699,-0.0002174657,-0.01716286,-0.9952955,1.668457,3.066064,0.3380587
0.0219429,0.3216569,-11.28947,-1.2379,0.0004341668,-0.004897446,-1.003416,1.675515,2.818341,0.3108956
0.0209444,3.008856,-17.39169,-0.1992544,-0.02225111,-0.01121742,-1.023225,1.738534,2.454082,0.3067223
0.0229251,2.319965,-6.545192,-0.8043178,-0.01908124,-0.01411531,-0.9891302,1.791719,2.304033,0.2882832
0.0219573,-2.049315,-1.735235,-1.307477,-0.02176533,-0.01234166,-1.000673,1.746722,2.265932,0.2595746
0.0259637,-2.730719,-0.7523423,-1.791181,-0.01521412,-0.009445169,-1.009521,1.675822,2.246398,0.2130689
0.0249349,-0.1879477,-0.9496325,-0.6812564,-0.0220281,-0.01191392,-1.010112,1.671136,2.222719,0.1960818
0.0258945,1.533914,-1.19898,-0.5804857,-0.019568,-0.01220815,-1.00089,1.710856,2.191672,0.1810504
0.0229399,0.5574024,-0.9268322,-0.0347098,-0.02057778,-0.0114989,-0.9980785,1.723642,2.17041,0.1802542
0.020982,-1.298991,-1.039227,-0.1659959,-0.02506251,-0.009544478,-1.001307,1.696387,2.148605,0.1767713
0.0229056,-0.9519787,-5.853509,-1.049878,-0.02740528,-0.005532004,-1.000449,1.674581,2.014527,0.1527232
0.0209721,0.7096044,-13.49746,-0.30055,-0.02290081,-0.003118315,-1.011532,1.689463,1.731457,0.14642
0.0229437,1.905257,-8.557673,0.5551503,-0.03641061,-0.005560803,-1.002275,1.733177,1.535113,0.1591572
0.023935,2.368586,-10.85316,0.01075815,-0.03595792,-0.007660185,-0.9983618,1.789869,1.275342,0.1594147
0.0219439,1.683182,-11.45435,0.4005047,-0.03599634,-0.009813021,-1.005119,1.826805,1.023989,0.1682033
0.0259454,0.5704525,-3.585805,1.220962,-0.0480567,-0.01879251,-1.003244,1.841605,0.9309539,0.1998817
0.0278887,-0.008493517,-0.9082748,-1.079024,-0.04584656,-0.02048687,-1.003964,1.841368,0.9056233,0.1697891
0.0259569,0.1221852,-0.922327,-0.8281386,-0.04014657,-0.01901194,-1.001556,1.84454,0.8816826,0.1482932
0.0239449,-0.3118787,-1.089429,0.7880995,-0.04882174,-0.0193054,-1.00007,1.837072,0.8555963,0.1671642
0.0229018,-1.253819,-1.442626,-0.245278,-0.04943479,-0.0174745,-1.000432,1.808357,0.8225576,0.1615469
0.0209445,0.09792732,-9.988624,-0.9569448,-0.043034,-0.006959292,-0.9984431,1.810408,0.6133509,0.1415041
0.0209423,2.550325,-15.45786,0.7088209,-0.05525229,-0.008545515,-1.006938,1.863818,0.2896277,0.1563485
0.0239015,2.224933,-9.336316,0.6353225,-0.07212926,-0.009261359,-1.002613,1.916997,0.06647578,0.1715336
0.0259341,0.9033982,-8.134722,-1.696468,-0.05379645,-0.004088815,-0.9968382,1.940426,-0.1444909,0.1275373
0.0359357,-0.7119594,-3.485206,0.8684631,-0.06761614,-0.01083151,-1.002079,1.914841,-0.2697342,0.1587461
0.0229411,-1.12804,-1.063296,0.117291,-0.07399037,-0.01508961,-1.008682,1.888963,-0.2941274,0.1614369
0.0239391,0.6688645,-0.664336,-1.583123,-0.06534485,-0.01554829,-1.007232,1.904975,-0.310031,0.1235383
0.0248968,1.89456,-0.4897774,-0.7635683,-0.06582746,-0.02002589,-0.9951334,1.952143,-0.3222249,0.1045279
0.0219701,0.5309202,-0.7139396,-0.08932771,-0.06788551,-0.02345249,-0.9953047,1.963808,-0.3379102,0.1025654
0.0229111,-1.374018,-0.891512,-0.1447437,-0.06625355,-0.0204803,-1.000535,1.932328,-0.3583357,0.09924915
0.0219759,-1.380745,-1.329945,0.5920978,-0.05770068,-0.01854746,-0.9915921,1.901984,-0.3875625,0.112261
0.027893,1.085595,-7.673207,1.684652,-0.0780276,-0.01597195,-1.007267,1.932265,-0.6015912,0.159251
0.0239323,1.527892,-4.615027,-0.3697383,-0.07883664,-0.01332969,-1.001252,1.968831,-0.7120395,0.1504023
0.0239612,1.109066,-3.004846,-1.16424,-0.06970695,-0.01085142,-1.000511,1.995405,-0.7840392,0.1225058
0.022912,0.1788435,-0.5876072,0.8255557,-0.07654078,-0.01210842,-0.9997445,1.999503,-0.7975025,0.1414209
0.0209083,-0.6731337,0.1368091,1.75149,-0.08152968,-0.01285828,-1.000546,1.985429,-0.794642,0.1780416
0.0219778,-0.4871576,-0.08788423,0.2238599,-0.08052702,-0.01247047,-1.003105,1.974722,-0.7965735,0.1829615
0.0238987,0.773074,-0.4658283,-1.205008,-0.07406835,-0.01330108,-1.002297,1.993198,-0.8077062,0.1541634
0.0209766,1.368491,-0.3772385,-0.7530302,-0.07472742,-0.01627057,-0.9968093,2.021904,-0.8156194,0.1383674
0.024899,0.2254455,-0.09940632,0.1245085,-0.07448988,-0.01908792,-0.9952323,2.027517,-0.8180946,0.1414675
0.0329121,-1.315485,-0.2705606,0.4308694,-0.08121644,-0.02028013,-1.004148,1.984222,-0.8269992,0.1556484
0.0299195,0.7523938,-0.4859217,0.2215889,-0.0735319,-0.01828687,-1.004899,2.006733,-0.8415378,0.1622782
0.0259315,1.232444,-0.6103584,1.338861,-0.08082063,-0.02143488,-0.9954482,2.038692,-0.8573653,0.1969968
0.0239345,-0.6514253,-0.6940017,0.5614507,-0.08007103,-0.01640347,-0.9988365,2.023101,-0.8739758,0.2104349
0.0268932,-1.456795,0.3319027,-0.4458687,-0.07407285,-0.0104892,-1.00289,1.983923,-0.8650499,0.1984441
0.0239357,-0.0588298,0.2707548,0.4060377,-0.07869969,-0.01062786,-1.00356,1.982515,-0.8585692,0.2081628
0.0239364,0.8512853,-0.1700317,0.5775494,-0.07693241,-0.0107795,-0.9979014,2.002891,-0.8626391,0.2219873
0.0279255,0.1148607,-0.4400609,0.3020526,-0.07860673,-0.01492791,-0.9994214,2.006099,-0.8749281,0.2304223
0.0249661,-0.4212095,-0.6039944,-0.2805429,-0.07773539,-0.01356731,-1.001485,1.995583,-0.8900074,0.2234182
0.0249001,0.2045037,-0.3400004,0.04915439,-0.07539889,-0.01635983,-1.002211,2.000675,-0.8984735,0.2246421
0.0239357,0.5190001,-0.05266596,0.8122399,-0.07715745,-0.01749977,-0.9972152,2.013098,-0.8997341,0.2440837
0.0229391,0.04093227,-0.162092,0.6198413,-0.07980844,-0.0196952,-0.9993464,2.014036,-0.9034523,0.2583023
0.0239353,0.09309812,-0.44947,-0.2036452,-0.0763643,-0.01856076,-1.002361,2.016265,-0.9142106,0.253428
0.0209439,0.5100867,-0.4795316,0.4325063,-0.07759773,-0.01747324,-1.001511,2.026948,-0.9242538,0.2624863
0.0219664,0.5808198,-0.4011685,0.8360977,-0.07922111,-0.01750328,-0.9980983,2.039706,-0.9330661,0.2808524
0.0229473,-0.7261285,-0.3801167,1.042938,-0.07645706,-0.01580218,-0.9949885,2.023044,-0.9417887,0.304785
0.0239366,-1.962484,-0.2812237,0.9688953,-0.0867006,-0.01308238,-1.007107,1.976069,-0.9485202,0.327977
0.0268921,0.0456188,-0.2329731,-0.7906975,-0.07889754,-0.01023402,-1.00785,1.977296,-0.9547854,0.3067135
0.0209798,1.792735,-0.3462339,-0.6440814,-0.07631873,-0.0117534,-0.9979007,2.014907,-0.9620493,0.2932008
0.0229364,0.5595261,-0.3300202,0.6582162,-0.07770506,-0.01447871,-0.9929107,2.02774,-0.9696188,0.3082979
0.0209437,-1.06969,-0.4807633,0.3095213,-0.08408466,-0.01604782,-0.9999861,2.005337,-0.9796878,0.3147804
0.0239402,0.2464837,-2.74306,-1.040109,-0.08402531,-0.0113125,-0.9960303,2.011238,-1.045357,0.28988
0.0219502,3.672708,-13.30871,0.625604,-0.08091729,-0.01743108,-1.010131,2.091855,-1.337486,0.3036122
0.024959,2.852467,-5.398077,1.637756,-0.08864711,-0.02319602,-0.9929816,2.163049,-1.472217,0.3444889
0.0239147,-0.4246801,-0.682779,-0.1192098,-0.09422462,-0.02344635,-0.9958704,2.152893,-1.488545,0.3416381
0.0289587,-1.900681,1.207613,-1.25681,-0.0828249,-0.01589571,-1.003647,2.097852,-1.453574,0.3052425
0.0249224,-0.3449423,1.407362,0.1654888,-0.0886614,-0.01713523,-1.00483,2.089255,-1.418499,0.3093669
0.023911,1.174828,0.8582315,-0.03617394,-0.08836665,-0.01705416,-0.9984517,2.117346,-1.397978,0.3085019
0.0219741,0.948024,0.5468221,-0.6151111,-0.09057931,-0.01744167,-0.9967653,2.138178,-1.385962,0.2949854
0.0219412,-0.3538857,0.8218136,-1.288391,-0.08764657,-0.0175474,-0.9972205,2.130414,-1.367931,0.2667165
0.0238945,-1.519936,0.8027955,-0.7028747,-0.08385886,-0.01458919,-0.9988701,2.094095,-1.348748,0.2499217
0.0219428,-1.568938,0.5527168,0.2670459,-0.08781794,-0.01493484,-1.004682,2.059669,-1.33662,0.2557814
0.0249316,-0.06929875,0.1996733,-0.09684265,-0.08806309,-0.0153038,-1.004442,2.057941,-1.331642,0.253367
0.025931,1.008467,-0.02943245,-0.187298,-0.08642174,-0.01717163,-0.997816,2.084091,-1.332405,0.2485102
0.0278999,0.1902373,-0.513766,-0.400773,-0.08677578,-0.01875699,-0.9983215,2.089399,-1.346739,0.2373286
0.0239608,-0.4544749,-0.6601844,-0.216974,-0.08165354,-0.01542983,-0.9994619,2.078509,-1.362558,0.2321298
0.0249343,-0.212659,-0.5014922,1.434006,-0.08553709,-0.01641485,-1.000864,2.073207,-1.375062,0.2678857
0.0219758,-0.09101362,-0.3587971,1.641185,-0.0937098,-0.01865527,-0.9999987,2.071207,-1.382947,0.3039521
0.0248992,-0.187912,-0.2328227,-0.08949706,-0.08797142,-0.0169124,-1.001143,2.066528,-1.388744,0.3017237
0.0229373,0.1013498,0.6173606,-0.9175007,-0.09085008,-0.01603976,-1.00583,2.068852,-1.374583,0.2806787
0.0229735,1.317408,2.909498,-1.991302,-0.09097945,-0.01690141,-1.004856,2.099118,-1.307742,0.2349315
0.0229073,1.365103,5.650682,-2.543406,-0.07465696,-0.01666823,-0.9920307,2.130389,-1.1783,0.1766689
0.0289553,-1.261311,7.518846,-1.258876,-0.08956189,-0.01937005,-0.9998305,2.093867,-0.9605897,0.1402178
0.0269297,-1.138307,6.866738,-3.190233,-0.08092449,-0.01902629,-1.008916,2.063213,-0.7756705,0.05430578
0.0269266,2.275907,15.84845,-5.91863,-0.06368408,-0.01581352,-1.002923,2.124495,-0.3489257,-0.1050628
0.0269587,2.543121,22.50579,-2.479228,-0.04742759,-0.01880192,-0.983011,2.193054,0.2578012,-0.1718996
0.0249047,-1.669035,16.98787,0.1480567,-0.06553005,-0.02317422,-0.9988288,2.151488,0.680879,-0.1682123
0.0239353,-1.999937,11.21642,-1.767923,-0.05080048,-0.01490145,-1.021147,2.103618,0.9493474,-0.210528
0.0219761,2.355411,14.011,-2.517456,-0.03861674,-0.01338536,-1.020498,2.155381,1.257254,-0.2658519
0.0249014,6.06142,17.75681,-1.608263,-0.03057317,-0.0179535,-1.007315,2.306319,1.699424,-0.3058999
0.024968,3.393936,12.72225,0.1426543,-0.02523015,-0.02065938,-0.9822633,2.391059,2.017073,-0.3023381
0.0239259,-0.8790281,5.849576,0.8002282,-0.03363146,-0.02372443,-1.004451,2.370027,2.15703,-0.2831919
0.0219522,-2.11831,13.30175,-1.821979,-0.03861502,-0.03093308,-1.025399,2.323526,2.449032,-0.3231884
0.0279252,-6.565494,55.79929,-8.630388,0.01773336,-0.02800885,-1.004345,2.140183,4.007238,-0.5641937
0.0268932,-11.99889,67.11302,-7.383549,0.04420386,-0.01263729,-0.9661631,1.817494,5.812122,-0.762761
0.0249319,-12.74998,38.69022,-3.981559,0.06586583,-0.006156609,-1.008021,1.499613,6.776743,-0.8620288
0.0259641,-5.888392,20.99635,1.337998,0.08047617,0.002656028,-1.019795,1.346726,7.321894,-0.8272889
0.0259312,4.069176,6.503809,5.883968,0.05581403,-0.007921972,-1.024826,1.452245,7.490546,-0.6747106
0.0239001,6.802974,18.32306,1.278731,0.08263827,-0.009370587,-0.9905559,1.614837,7.928469,-0.6441488
0.0249682,1.844304,29.08512,0.8644115,0.09215235,-0.0106238,-0.9791716,1.660886,8.654672,-0.622566
0.0229396,-3.187957,25.75815,1.230761,0.09647376,-0.008247557,-0.9847411,1.587755,9.245553,-0.5943328
0.0219665,-4.398326,23.72241,-0.1431235,0.095264,-0.01113644,-1.028536,1.491139,9.766651,-0.5974767
0.0209191,-3.364837,46.3534,-5.304974,0.1307582,-0.004756846,-1.008938,1.42075,10.73632,-0.708452
0.0229114,-4.011864,65.22562,-6.849252,0.1614485,-0.001559761,-0.9729947,1.328833,12.23073,-0.8653779
0.0219415,-5.908176,56.51449,-3.665794,0.175444,-0.003472542,-0.9695279,1.199198,13.47075,-0.9458109
0.0279587,-6.870552,32.81999,0.6883154,0.1971229,0.003606382,-0.9911565,1.007107,14.38835,-0.9265665
0.0278915,-0.7131754,26.40782,2.312085,0.1910875,0.0005811891,-1.017727,0.9872151,15.1249,-0.862079
0.0229754,2.70304,44.7947,-0.8018516,0.2193147,0.003018526,-0.9793681,1.049319,16.15408,-0.8805018
0.0249227,-0.5177361,49.80654,-0.1132174,0.2417492,8.210447E-05,-0.944671,1.036415,17.39539,-0.8833235
0.0219489,-4.459167,32.81589,0.8268533,0.2508,0.004494596,-0.9594848,0.9385414,18.11567,-0.8651749
0.0229053,-3.896091,18.80529,0.7046212,0.255887,0.006184123,-0.9898104,0.8493003,18.54641,-0.8490354
0.0219768,-1.03031,29.33461,-1.371014,0.2597013,0.004703648,-1.003258,0.8266574,19.19109,-0.8791659
0.0258941,-0.5299358,54.72956,-3.822822,0.3048447,0.008150784,-0.9399248,0.8129351,20.60826,-0.9781544
0.0219759,-1.872089,41.15379,-0.8579129,0.3177317,0.006593597,-0.9356111,0.7717943,21.51265,-0.9970078
0.0258956,-2.149244,22.62629,1.855289,0.3249626,0.004101285,-0.9598106,0.7161383,22.09857,-0.948964
0.0249371,-0.2847845,30.73872,0.2468354,0.3159194,0.002237882,-0.9795458,0.7090366,22.86511,-0.9428086
0.0229614,-0.5249945,57.78262,-3.622248,0.3457866,0.008019386,-0.9472722,0.696982,24.19188,-1.02598
0.0229387,-1.35891,55.1241,-1.251892,0.3831549,0.008046976,-0.9074699,0.6658103,25.45635,-1.054697
0.0249427,-2.678246,33.46282,2.09298,0.3907159,0.006367541,-0.9067765,0.5990077,26.29101,-1.002493
0.0229376,-3.027575,23.92038,2.632412,0.3921938,0.006773764,-0.930168,0.5295624,26.83968,-0.9421114
0.0219742,-1.095898,34.94445,-0.5392891,0.4054919,0.009528642,-0.9314581,0.5054809,27.60756,-0.9539619
0.0219425,0.04891794,44.58678,-2.408909,0.4270256,0.01470976,-0.9063996,0.5065542,28.58591,-1.006819
0.0219092,0.1308658,38.216,-0.6978211,0.4500016,0.014818,-0.8885906,0.5094214,29.42319,-1.022108
0.0279223,-0.7125539,23.57354,2.47496,0.4522001,0.01208835,-0.8988792,0.4895253,30.08142,-0.9530015
0.0239727,0.03017206,27.13502,1.758921,0.4636393,0.01273679,-0.8967742,0.4902486,30.73191,-0.9108354
0.0249222,0.2403294,36.81487,-0.2577063,0.4739837,0.01086141,-0.8830552,0.4962381,31.64942,-0.917258
0.0239623,-0.6523381,35.33429,-0.3036738,0.4871419,0.009126378,-0.8701589,0.4806066,32.49611,-0.9245347
0.0238837,-0.9909139,23.46947,1.36145,0.4988338,0.00929169,-0.8686671,0.4569399,33.05665,-0.8920183
0.0209775,-0.4562508,20.52344,1.279018,0.4968614,0.00689583,-0.8769203,0.4473689,33.48718,-0.8651876
0.0229381,0.004132412,31.80992,-1.414642,0.5113071,0.006553372,-0.8706179,0.4474637,34.21684,-0.8976368
0.0219414,0.3126323,32.48682,-1.787918,0.5349916,0.0119622,-0.8416092,0.4543233,34.92965,-0.9368662
0.0239025,0.2241854,14.70709,1.479756,0.5340292,0.01000789,-0.8421248,0.4596819,35.28119,-0.9014964
0.0259637,0.9214105,4.637378,1.831581,0.5372973,0.009297341,-0.8615797,0.4836051,35.40159,-0.8539417
0.0269319,-0.5995151,35.90064,-1.998086,0.5321988,0.008187262,-0.8633654,0.467459,36.36846,-0.907754
0.0248961,-1.331737,55.07416,-3.975417,0.5809413,0.0204988,-0.8087531,0.4343039,37.73959,-1.006726
0.0229771,-1.032341,26.0267,1.069322,0.584207,0.01670368,-0.8049397,0.4105837,38.33761,-0.9821565
0.0229329,0.4258223,4.905721,3.100985,0.5679114,0.009584526,-0.8287221,0.4203491,38.45012,-0.9110419
0.0209447,1.468042,11.88849,0.2526336,0.5614356,0.007051367,-0.8377665,0.4510968,38.69912,-0.9057505
0.0209456,0.2992488,36.09997,-2.81094,0.5987758,0.009460207,-0.8072639,0.4573647,39.45525,-0.9646273
0.021907,-0.9988242,43.20442,-2.120329,0.6159011,0.01456143,-0.7915754,0.4354835,40.40173,-1.011077
0.025931,0.07421275,21.57784,1.920911,0.6226778,0.01039946,-0.7852703,0.4374079,40.96127,-0.9612663
0.0239624,1.117142,8.211661,3.907366,0.6133978,0.006630547,-0.7939897,0.4641773,41.15804,-0.8676364
0.0239098,1.317104,19.45432,0.546344,0.6155471,0.006857438,-0.7899168,0.495669,41.62318,-0.8545735
0.0219743,1.044384,26.43011,-2.376839,0.6342384,0.009996099,-0.7717714,0.5186186,42.20397,-0.9068028
0.0239032,-0.432258,16.01127,-0.463729,0.6479948,0.01217272,-0.7592086,0.5082862,42.58669,-0.9178874
0.0209765,-1.737807,3.808888,2.633192,0.6326057,0.009054501,-0.7781718,0.4718331,42.66659,-0.8626523
0.0298875,-0.3649442,7.676808,0.3442311,0.6300247,0.008736975,-0.7872761,0.4609259,42.89603,-0.8523641
0.0349425,0.157982,22.86448,-2.653423,0.6592511,0.01376279,-0.7519512,0.4664462,43.69497,-0.9450814
0.0329108,-1.757855,2.174042,2.090409,0.64829,0.008900682,-0.7626598,0.4085937,43.76652,-0.8762843
0.0249321,-0.7561579,0.6093687,0.2870517,0.6488181,0.009049539,-0.7663296,0.3897412,43.78171,-0.8691275
0.0239358,0.7115347,1.410014,-1.447208,0.6651413,0.0111188,-0.7542267,0.4067723,43.81546,-0.9037676
0.0229387,-0.3258784,0.4686137,0.869718,0.6647664,0.0113564,-0.7534941,0.3992971,43.82621,-0.8838174
0.0248983,-1.706748,-0.9858063,3.386843,0.6524328,0.008794652,-0.7622423,0.356802,43.80167,-0.7994907
0.026928,0.1372896,0.4453453,0.4882903,0.6501189,0.01001,-0.7629976,0.3604989,43.81366,-0.7863421
0.021974,1.183887,1.455077,-1.41681,0.6580017,0.01050827,-0.7590983,0.3865137,43.84563,-0.8174751
0.0249019,0.4143635,0.9195569,-0.3236427,0.6629435,0.01245349,-0.7544894,0.3968321,43.86853,-0.8255344
0.0249305,-0.8972453,0.1393242,1.211464,0.6504637,0.01085552,-0.761394,0.3744633,43.87201,-0.795332
0.0229659,-1.185003,4.970833,-0.0457354,0.6457779,0.007033872,-0.7774125,0.3472486,43.98617,-0.7963824
0.0219503,-0.8858603,20.61824,-2.361226,0.6791224,0.01617263,-0.7519377,0.3278037,44.43874,-0.848212
0.0239211,0.06141417,14.27094,0.9191754,0.6834337,0.01741754,-0.7342256,0.3292728,44.78012,-0.8262243
0.0219392,-0.9211519,1.022935,5.101182,0.6610194,0.00626929,-0.7437686,0.3090635,44.80256,-0.7143085
0.0249332,-1.58923,-1.125544,2.344765,0.653888,0.005296636,-0.7492556,0.2694389,44.7745,-0.655846
0.0209461,-1.409969,0.175003,-2.030314,0.6614475,0.008388883,-0.7501228,0.2399056,44.77816,-0.6983732
0.0209437,-0.07057785,1.364346,-3.937344,0.6718518,0.01139535,-0.7545108,0.2384274,44.80674,-0.7808357
0.0269282,1.703117,0.8170325,-0.8673549,0.6835948,0.0135988,-0.7473658,0.2842893,44.82874,-0.8041921
0.0259566,1.766837,-0.5677544,2.677269,0.6651585,0.007384854,-0.7434654,0.3301504,44.814,-0.7346992
0.0288976,-0.07396017,-0.1437542,0.8418865,0.6645277,0.006879883,-0.7413928,0.3280131,44.80985,-0.7103708
0.027926,-2.047646,-0.1326632,-0.5102718,0.6716421,0.01085237,-0.7464269,0.2708306,44.80614,-0.7246206
0.0229737,-1.741067,0.4270664,-0.4575244,0.6701452,0.01359086,-0.7553744,0.2308318,44.81596,-0.7351317
0.021905,0.3532266,1.558079,-0.2216074,0.6789817,0.01408037,-0.7495024,0.2385693,44.85009,-0.739986
0.0229698,0.8598058,5.373888,0.3826289,0.6731418,0.01288803,-0.7394078,0.2583188,44.97352,-0.7311971
0.0219165,-0.2650145,1.220931,0.6048127,0.6670766,0.007863013,-0.7406195,0.2525106,45.00028,-0.7179418
0.0269215,-0.8882298,0.6748985,-1.898101,0.673119,0.01258029,-0.7482357,0.2285981,45.01845,-0.7690415
0.0249335,0.06628318,0.4508331,-0.7584224,0.6801446,0.01258316,-0.74386,0.2302508,45.02969,-0.7879516
0.0219501,-0.02734219,-0.8852795,1.740817,0.6718455,0.01009476,-0.7425073,0.2296506,45.01026,-0.7497405
0.0239254,-0.5120145,-0.8658562,1.294597,0.6607266,0.008392177,-0.7511122,0.2174005,44.98954,-0.7187667
0.0219507,0.3047217,0.9035329,-1.446392,0.6727442,0.01110471,-0.7469022,0.2240894,45.00938,-0.7505161
0.0239026,0.01303192,0.4362544,-0.6142058,0.6765696,0.01229944,-0.7403507,0.2244008,45.01981,-0.7651972
0.0219681,-0.802391,-0.1979329,0.2620226,0.6655916,0.009629803,-0.7503089,0.2067738,45.01546,-0.759441
0.0209773,0.3585027,0.466872,-1.059335,0.6717866,0.01270212,-0.7491091,0.2142943,45.02525,-0.781663
0.0239011,1.341612,0.9147944,-0.9057662,0.6766887,0.01437858,-0.7408252,0.2463603,45.04712,-0.8033118
0.0279259,0.05138367,-0.02063372,0.164177,0.6705902,0.01190325,-0.7399359,0.2477952,45.04654,-0.798727
0.0229373,-0.863737,-0.04254248,-0.745602,0.6766194,0.01379799,-0.7453654,0.2279834,45.04556,-0.8158292
0.0229136,-0.4776274,-0.2438616,0.01863937,0.6804017,0.01540679,-0.7460437,0.2170393,45.03997,-0.8154021
0.0209781,-0.003115712,-0.6978471,2.039205,0.6747828,0.01292872,-0.7444132,0.2169739,45.02533,-0.7726234
0.0258964,-0.1141967,-0.08380698,1.248592,0.6605608,0.006774283,-0.74659,0.2140166,45.02316,-0.7402894
0.0229374,0.1996963,0.9652477,-2.225762,0.67383,0.0106131,-0.7456666,0.2185971,45.0453,-0.7913426
0.0269623,0.3196643,0.09122775,-1.351134,0.6815908,0.01417014,-0.7428508,0.227216,45.04776,-0.8277723
0.0248989,-0.1653078,-0.5957636,1.201486,0.6718816,0.01195216,-0.7464164,0.2231,45.03293,-0.7978566
0.025965,0.6773235,1.018837,-0.5988376,0.6632681,0.0125526,-0.7508074,0.2406867,45.05938,-0.8134054
0.0269177,0.4949233,8.245219,-2.904093,0.66085,0.01377807,-0.7531573,0.2540089,45.28133,-0.8915769
0.0269284,-1.139792,17.74702,-3.701504,0.6902624,0.019455,-0.7238319,0.2233162,45.75922,-0.9912525
0.0229394,-1.681095,4.066622,0.4267177,0.6855767,0.01294109,-0.7388883,0.1847529,45.85251,-0.9814638
0.0249077,-0.4895911,-0.9582883,3.063799,0.6835112,0.01134565,-0.7390471,0.1725583,45.82864,-0.9051517
0.0239688,0.3225199,-1.935656,3.531714,0.6798931,0.006875211,-0.7301738,0.1802887,45.78225,-0.8205007
0.0229777,-1.631138,-3.184785,2.620728,0.6761553,0.008107811,-0.734501,0.1428089,45.70907,-0.7602825
0.0229009,-2.420397,-2.997992,1.026737,0.6784312,0.01171526,-0.7430288,0.0873796,45.64041,-0.7367693
0.0259309,-0.5968084,-1.84995,0.9500859,0.6825886,0.01541167,-0.7452816,0.07190382,45.59244,-0.7121327
0.02796,1.166056,-1.045923,1.743378,0.6723886,0.01213753,-0.7372157,0.1045068,45.5632,-0.6633878
0.0329122,0.05327064,-0.03001434,-1.301589,0.6762837,0.01227293,-0.7365545,0.10626,45.56221,-0.706226
0.0289254,-1.232607,-0.5257381,-1.408761,0.6868024,0.01747816,-0.7410485,0.07060638,45.547,-0.7469749
0.0249331,-0.1639238,-1.981735,1.516508,0.6830677,0.01589806,-0.7446596,0.06651925,45.49759,-0.7091637
0.0248994,1.738475,-4.353373,3.715862,0.6808391,0.01305342,-0.7406613,0.1098062,45.3892,-0.616641
0.0269562,0.8063399,-10.90119,5.746651,0.686029,0.01059673,-0.7348539,0.1315421,45.09534,-0.4617331
0.0259008,-1.212591,-19.40799,9.188025,0.6652972,0.005755313,-0.755365,0.100135,44.59266,-0.2237559
0.0259302,0.5559033,-19.17264,7.099628,0.6501369,0.0004756609,-0.7612245,0.1145497,44.09551,-0.03966112
0.0259327,1.853161,-15.8118,2.635578,0.6468027,-0.002745849,-0.7563843,0.1626071,43.68547,0.02868653
0.0239356,1.220483,-10.27644,-1.159053,0.6467126,-0.0005243989,-0.7600473,0.1918201,43.4395,0.0009439066
0.0229719,0.6390766,-6.581572,-3.879742,0.6455743,0.003312781,-0.7687377,0.2065009,43.28831,-0.08818115
0.0239376,1.470392,-10.77801,-3.906193,0.6511368,0.006613411,-0.7655827,0.2416986,43.03031,-0.181686
0.0209413,2.094216,-18.22077,-1.580689,0.646769,0.005750753,-0.767358,0.2855542,42.64874,-0.2147877
0.0219768,2.920667,-28.76855,0.3221708,0.6409227,0.00695278,-0.7685241,0.3497411,42.0165,-0.2077074
0.022903,3.756334,-44.12164,2.221139,0.6233435,0.005467964,-0.7775738,0.4357724,41.00599,-0.1568367
0.0239603,3.558359,-59.09153,4.653007,0.6039528,0.003446876,-0.7990296,0.5210318,39.59013,-0.04534925
0.0249461,3.192969,-56.98184,4.392664,0.5811326,-0.003909743,-0.8282865,0.6006839,38.16866,0.06423059
0.022901,2.668882,-35.60939,0.8287318,0.5579626,-0.008100382,-0.8381585,0.661804,37.35317,0.08320938
0.0229639,1.441188,-16.45439,-3.147163,0.5536135,-0.007311636,-0.8312191,0.6948993,36.97531,0.01093824
0.0239102,0.09184191,-20.94523,-4.962454,0.5582763,-0.00575588,-0.8233067,0.6970953,36.47451,-0.107715
0.0219672,0.5040425,-39.96766,-3.252878,0.5544321,0.002901143,-0.8426608,0.7081677,35.59653,-0.1791717
0.021949,2.837831,-56.33205,1.869133,0.5374576,-0.003283474,-0.8605613,0.7704552,34.3601,-0.138146
0.0229413,4.612254,-54.75427,4.655407,0.5029781,-0.007995003,-0.8732713,0.8762664,33.10396,-0.03134495
0.0219074,2.669671,-46.36898,2.113288,0.484735,-0.01321031,-0.8541622,0.9347519,32.08814,0.0149517
0.025964,-2.568187,-50.82361,0.07172462,0.4800387,-0.00609774,-0.8621377,0.8680716,30.76855,0.01681396
0.0219431,-3.587579,-65.41711,2.836585,0.4450873,-0.002505858,-0.9121822,0.789349,29.3331,0.07905741
0.0219759,-0.5501978,-75.42264,5.584823,0.4209851,-0.004961426,-0.926589,0.7772579,27.67562,0.2017889
0.0209089,0.9632873,-69.09866,5.544571,0.3827879,-0.008868366,-0.9343129,0.7973992,26.23084,0.3177198
0.0248981,-1.150387,-53.98108,1.643424,0.3697163,-0.01182815,-0.9203961,0.7687567,24.88682,0.3586379
0.0269265,-4.692318,-47.27817,-1.193141,0.3578478,-0.005345787,-0.930302,0.642409,23.61378,0.3265108
0.0219415,-2.637461,-54.12016,-0.3063664,0.3329534,-0.002310477,-0.9631897,0.5845391,22.42631,0.3197887
0.0229394,0.2534199,-51.4136,2.575214,0.3104101,-0.005092782,-0.9640962,0.5903524,21.24691,0.3788625
0.0279258,1.342625,-41.84117,2.837177,0.2801695,-0.009386611,-0.9632682,0.6278463,20.07846,0.458093
0.0239599,0.5757445,-36.76822,-0.5271131,0.2767974,-0.008959739,-0.9563194,0.6416411,19.1975,0.4454634
0.023946,-1.938467,-40.14732,-0.5520194,0.2638135,-0.007510412,-0.9628415,0.5952225,18.23613,0.4322448
0.0209337,-2.735349,-41.71916,0.6948951,0.2384512,-0.003804131,-0.9867821,0.5379615,17.36279,0.4467915
0.0259414,0.2550221,-37.4431,0.7114528,0.2332497,-0.0004978254,-0.9918482,0.5445772,16.39147,0.4652476
0.0229271,2.87739,-31.71399,1.90823,0.2219224,0.0006838078,-0.993694,0.6105474,15.66436,0.5089977
0.0219513,2.272922,-26.28818,1.547883,0.2061108,-0.006727844,-0.9730995,0.660441,15.0873,0.5429758
0.0219328,1.12685,-29.98947,0.7146452,0.1940449,-0.002665977,-0.9863341,0.685156,14.42954,0.55865
0.0239082,2.782465,-30.10773,0.8749666,0.1802641,-0.007109315,-1.00688,0.7516797,13.70972,0.5795689
0.0239105,4.417933,-15.37333,1.687132,0.1715442,-0.01570197,-0.9874334,0.8573147,13.34214,0.619909
0.0249347,0.4542965,-4.585637,0.8028435,0.1688886,-0.02514409,-0.964609,0.8686424,13.2278,0.6399277
0.020977,-3.725917,-12.30598,-1.530433,0.181439,-0.01388521,-0.9784749,0.7904839,12.96965,0.6078238
0.0239363,-1.497077,-23.94797,-0.004699768,0.160364,-0.009341038,-1.015351,0.7546494,12.39643,0.6077113
0.0209109,2.795813,-17.08791,1.534352,0.1515036,-0.009795665,-1.008107,0.8131124,12.0391,0.639796
0.0239364,2.78187,-9.439913,1.392481,0.1378221,-0.01319848,-0.9830462,0.8797003,11.81315,0.673127
0.0219044,0.3790788,-10.93304,-1.218134,0.1397987,-0.007667585,-0.9872742,0.8880038,11.57366,0.6464445
0.0249341,-0.3870653,-16.98369,-1.452179,0.1412961,-0.003602155,-0.9917632,0.8783527,11.15019,0.6102357
0.0289272,1.392215,-23.21449,0.8696703,0.1231589,-0.005425586,-1.005358,0.9186256,10.47866,0.6353928
0.0279255,1.811439,-14.27486,1.046136,0.1131235,-0.009162885,-1.00097,0.9692109,10.08003,0.6646068
0.029919,-0.623466,-4.40928,-0.8535368,0.1116725,-0.01204964,-0.9900983,0.9505575,9.948107,0.6390698
0.0269274,-0.3951352,-17.21011,-0.1691397,0.1311254,-0.006736173,-0.9863927,0.9399175,9.484683,0.6345153
0.0269277,3.042409,-33.74161,3.069623,0.0770121,-0.01775244,-1.01912,1.021843,8.576099,0.7171732
0.029943,4.229909,-24.22874,0.124827,0.07514366,-0.01878708,-0.9932862,1.148499,7.850618,0.7209108
0.0279384,2.069487,-24.79746,-1.006641,0.07177302,-0.01755203,-0.9977314,1.206317,7.157817,0.6927869
0.0318787,-0.2657332,-18.56439,0.2647794,0.04429189,-0.01921777,-1.004697,1.197846,6.566008,0.7012278
0.0269277,-1.355942,-7.451532,-1.763003,0.04992713,-0.01538373,-1.008279,1.161333,6.365355,0.6537542
0.0259291,-0.9299907,-2.652074,-1.730615,0.05446204,-0.01370972,-0.9998769,1.13722,6.296589,0.6088809
0.0239374,-2.304096,-2.692978,-0.2910303,0.03738575,-0.01366549,-0.9998394,1.082065,6.232127,0.6019143
0.0229749,-1.601748,-16.16917,-0.8767222,0.04817799,-0.00851439,-0.9959951,1.045265,5.860641,0.5817717
0.0249222,1.087751,-27.70737,1.484099,0.02877672,-0.01029706,-1.016591,1.072375,5.170113,0.6187587
0.022934,2.85362,-21.4214,2.222002,0.01540239,-0.01542308,-1.007596,1.13782,4.678834,0.6697181
0.022954,1.214134,-10.42108,1.600198,0.01565426,-0.01720351,-0.9966961,1.165689,4.439629,0.7064491
