DT,Velocity X,Velocity Y,Velocity Z,Acceleration X,Acceleration Y,Acceleration Z,Angle X,Angle Y,Angle Z
0.0299089,-0.2347626,0.07075869,-0.5467631,-0.02715241,0.0034078,-1.00443,-0.1047824,-0.05780362,0.1240979
0.0299219,-0.09451696,0.2234333,-0.1748553,-0.02655745,0.004380581,-1.003435,-0.1076105,-0.05111807,0.1188659
0.0329351,-0.3790854,0.1931355,0.0638466,-0.02679135,0.004263155,-1.004297,-0.1200957,-0.04475714,0.1209687
0.0269059,-0.1362737,0.2515638,0.3722202,-0.02694393,0.00375462,-1.00136,-0.1237623,-0.03798858,0.1309836
0.0269291,-0.7672742,0.338522,0.4244065,-0.0276585,0.00253796,-1.002481,-0.1444243,-0.02887249,0.1424125
0.0239378,-0.7381899,0.2456696,0.1631826,-0.02617137,0.003415434,-1.004908,-0.1620949,-0.0229917,0.1463187
0.0259299,0.3250657,-0.1775595,0.05179125,-0.02850915,0.004493949,-1.003458,-0.153666,-0.0275958,0.1476617
0.024934,0.3673975,-0.1659474,-0.331119,-0.0267169,0.00558113,-1.000487,-0.1445053,-0.03173354,0.1394056
0.0269629,-0.5594745,-0.02933079,-0.06196461,-0.02753513,0.005231588,-1.003564,-0.1595904,-0.03252438,0.1377348
0.027925,0.2357744,-0.2164426,-0.1855223,-0.02898042,0.003767507,-1.004695,-0.1530064,-0.03856853,0.1325541
0.0259005,0.7542946,-0.300097,-0.6194661,-0.02707622,0.00497157,-1.000863,-0.1334698,-0.0463412,0.1165096
0.0309157,-0.1012089,0.1217517,-0.08361928,-0.02571526,0.00486696,-1.002563,-0.1365987,-0.04257716,0.1139245
0.0279249,-0.3903665,0.3331209,0.8817277,-0.02498073,0.004504814,-1.002679,-0.1474997,-0.03327479,0.1385466
0.0279615,-0.6327054,0.2586893,1.501735,-0.0295829,0.003646808,-1.005316,-0.1651911,-0.02604145,0.1805374
0.027915,-0.1048597,0.2532007,0.2956545,-0.02983457,0.003885774,-1.004704,-0.1681182,-0.01897335,0.1887906
0.0289306,0.37147,0.1132047,-0.3270927,-0.0250897,0.005001601,-1.004026,-0.1573714,-0.01569828,0.1793276
0.0298882,-0.2219553,0.08509732,0.737324,-0.02585328,0.004122471,-1.000854,-0.1640052,-0.01315487,0.2013649
0.0258961,-0.9577988,0.2560782,0.9491948,-0.02909879,0.003891501,-1.005063,-0.1888085,-0.006523443,0.2259453
0.0239678,-0.2080095,0.3270112,0.1087956,-0.02765127,0.0054793,-1.004176,-0.193794,0.001314296,0.2285529
0.0249009,0.1870254,0.4380139,-0.2555236,-0.02621167,0.006328072,-1.002314,-0.1891369,0.01222124,0.2221902
0.0289218,-0.8123547,0.5177591,0.4862287,-0.02315144,0.005859112,-1.003138,-0.2126316,0.02719576,0.2362528
0.0229386,-0.7532333,0.5826843,1.111386,-0.03041815,0.004143608,-1.007161,-0.2299098,0.04056172,0.2617464
0.024965,0.5189914,0.6556647,-0.3289287,-0.03020854,0.005225353,-1.004454,-0.2169531,0.05693039,0.2535347
0.027894,0.03536634,0.8103641,-1.149936,-0.02149634,0.006324701,-0.9985796,-0.2159666,0.07953469,0.2214584
0.0249338,-1.512876,0.8324314,0.1753929,-0.02217384,0.006721288,-1.003611,-0.2536884,0.1002904,0.2258316
0.0249575,-0.2994016,0.5909653,0.1165089,-0.0282224,0.005010408,-1.007496,-0.2611607,0.1150394,0.2287394
0.0209425,0.7227515,0.475988,-0.8269317,-0.02353705,0.005356049,-1.001185,-0.2460245,0.1250078,0.2114213
0.0269177,0.07227597,0.3605976,-0.3363268,-0.02326591,0.003660353,-1.003032,-0.244079,0.1347142,0.2023682
0.0248985,-0.5239104,0.3212682,0.1641573,-0.02474419,0.006337065,-1.002664,-0.2571236,0.1427133,0.2064555
0.0239702,-0.07414836,0.2781547,-0.152734,-0.02655507,0.005483379,-1.00404,-0.2589009,0.1493807,0.2027944
0.0239353,-0.07981445,0.5323793,-0.6834248,-0.0234162,0.0059678,-1.001302,-0.2608113,0.1621234,0.1864364
0.0258971,-0.5880523,0.7103769,-0.4231347,-0.02106108,0.007347235,-1.005186,-0.2760401,0.1805201,0.1754785
0.0269572,-0.1134231,0.4115929,-0.08018097,-0.02703828,0.006707715,-1.004896,-0.2790977,0.1916155,0.173317
0.0239075,-0.08592457,0.5986038,-1.125394,-0.02266259,0.008309398,-1.004096,-0.281152,0.2059266,0.1464117
0.0239709,0.07473693,0.9363711,-0.9125133,-0.02010053,0.007709622,-1.003946,-0.2793604,0.2283723,0.1245379
0.0229051,-0.1164477,0.9766594,-0.177045,-0.02646678,0.007421581,-1.001697,-0.2820277,0.2507427,0.1204827
0.0219733,-0.8430234,1.269572,-0.9030538,-0.0204981,0.007811206,-1.001131,-0.3005517,0.2786394,0.1006396
0.0229059,-1.563695,1.497889,-0.697566,-0.01485836,0.008833366,-1.00412,-0.3363695,0.3129499,0.08466123
0.0239597,-1.33875,1.125663,1.022939,-0.01872807,0.008468576,-1.006989,-0.3684456,0.3399205,0.1091705
0.0239647,0.152829,0.4747037,1.101192,-0.02350247,0.006233552,-1.004611,-0.3647831,0.3512966,0.1355603
0.0239666,0.3762019,0.1780488,0.04538697,-0.02217433,0.006843366,-1.00361,-0.3557668,0.3555638,0.136648
0.0299434,0.1878809,0.4399035,-0.209126,-0.0197469,0.007703875,-1.002839,-0.350141,0.3687361,0.1303861
0.0249357,-0.2651178,0.590681,0.3001125,-0.01731392,0.008200611,-1.002438,-0.3567519,0.3834651,0.1378696
0.0229516,-0.5100737,0.2964764,1.134821,-0.01848198,0.007247249,-1.006749,-0.368459,0.3902697,0.1639156
0.0238992,0.7042886,-0.1509178,1.035377,-0.02241936,0.006107353,-1.00325,-0.351627,0.3866629,0.1886603
0.0219979,0.5935044,-0.1431562,0.22941,-0.01976282,0.007939009,-1.001489,-0.3385712,0.3835138,0.1937068
0.0228821,-0.2764178,0.1356518,0.4572164,-0.01756485,0.008929527,-1.002068,-0.3448962,0.3866178,0.2041689
0.0219571,-0.6149455,0.4440073,0.7859914,-0.02243386,0.009035571,-1.002985,-0.3583986,0.3963669,0.221427
0.025898,-0.1231779,0.5413026,0.391154,-0.01996648,0.008084599,-1.005168,-0.3615887,0.4103855,0.2315571
0.0289217,-0.0131408,0.250896,0.4726418,-0.01817339,0.007948546,-1.001837,-0.3619687,0.4176419,0.2452267
0.0249334,-0.09072595,0.1684397,0.5701718,-0.02286862,0.007352191,-1.007169,-0.3642308,0.4218417,0.259443
0.0259335,0.6268894,0.2124904,-0.2800588,-0.02024172,0.008431702,-1.002472,-0.3479734,0.4273523,0.2521801
0.02493,0.09026188,0.4026397,-0.5266922,-0.01879215,0.007818006,-1.000988,-0.3457232,0.4373901,0.2390497
0.0219074,-0.7898821,0.6816425,-0.560846,-0.01745278,0.008679356,-1.001088,-0.3630275,0.4523231,0.226763
0.021933,-1.076996,0.7944703,0.02189366,-0.01529176,0.007150804,-1.008427,-0.3866492,0.4697482,0.2272432
0.0229114,-0.02501435,0.8524823,0.8337755,-0.0191444,0.009170705,-1.002699,-0.3872223,0.4892798,0.2463461
0.0249339,-0.5270079,1.237704,0.6183462,-0.01966569,0.007679819,-0.9991608,-0.4003627,0.5201406,0.2617639
0.0249016,-1.661139,1.702816,0.3454757,-0.01615893,0.009831058,-1.008174,-0.4417277,0.5625435,0.2703668
0.0269282,-0.1885017,0.9253888,0.5296654,-0.01507975,0.01068148,-1.006807,-0.4468037,0.5874625,0.2846297
0.024934,0.2607038,0.5151511,0.899616,-0.02050143,0.008298696,-1.001005,-0.4403034,0.6003073,0.3070607
0.0309166,-1.043511,1.288164,0.07002042,-0.01437951,0.01139999,-1.004219,-0.4725652,0.640133,0.3092255
0.0249648,-0.4415654,1.093459,0.391906,-0.01260731,0.009488812,-1.009359,-0.4835888,0.6674309,0.3190094
0.0239295,1.139076,0.5391687,1.190384,-0.01570141,0.008224088,-1.00487,-0.4563312,0.680333,0.3474947
0.0229137,1.005823,0.8257077,0.8710772,-0.01848368,0.008886356,-0.9961962,-0.4332841,0.699253,0.3674543
0.0318959,-1.442632,2.307476,0.4334551,-0.01154824,0.01093896,-1.006394,-0.4792981,0.7728519,0.3812797
0.0349068,0.1341241,1.073104,0.683078,-0.01175426,0.009981751,-1.009468,-0.4746163,0.8103105,0.4051238
0.0269536,1.357913,0.8190828,0.9723817,-0.01245948,0.008330522,-1.000294,-0.4380156,0.8323877,0.431333
0.0269037,-0.3761787,2.331876,1.282328,-0.0117202,0.01017397,-1.001621,-0.4481362,0.8951238,0.4658323
0.0249338,-1.0194,2.803905,2.015127,-0.008822799,0.008162014,-1.009199,-0.4735537,0.9650359,0.5160771
0.0229494,0.5131611,2.043598,2.121506,-0.0139067,0.008162114,-1.012693,-0.461777,1.011935,0.5647644
0.0259373,2.23471,3.681869,1.468541,-0.005770621,0.0122653,-0.9999406,-0.4038146,1.107433,0.6028544
0.0229045,0.471534,3.896398,1.953475,-0.0008427911,0.009918942,-0.9925422,-0.3930144,1.196678,0.6475977
0.0289555,-1.0722,2.05104,2.549234,-0.0119565,0.007068845,-1.012187,-0.4240605,1.256067,0.7214121
0.0268958,2.561677,5.460633,0.9195455,-0.00199633,0.0107114,-1.020744,-0.3551621,1.402935,0.746144
0.0229384,4.641268,12.15239,0.8162712,0.01149413,0.01145443,-0.9947103,-0.2486989,1.681692,0.764868
0.0229426,0.544425,8.931282,3.11909,0.01801113,0.009044352,-0.9766288,-0.2362083,1.886598,0.836428
0.0229025,-2.13863,3.022386,4.996871,-0.008284813,0.005502268,-1.012766,-0.2851883,1.955819,0.9508688
0.0249699,0.6031022,0.6746739,0.3068061,-0.005869869,0.006282139,-0.9998605,-0.2701289,1.972665,0.9585298
0.0248959,0.4817324,0.313464,-2.40695,0.0122848,0.003367345,-1.008117,-0.2581357,1.980469,0.8986066
0.0239342,0.7858534,0.6619515,-1.023689,0.01486818,0.007479932,-1.00058,-0.239327,1.996312,0.8741055
0.0289262,-0.7179388,1.11856,1.004094,0.006473928,0.006108542,-1.00204,-0.2600942,2.028668,0.9031501
0.0259305,-0.2517087,2.981905,0.7206406,0.007219098,0.005948291,-1.014168,-0.2666211,2.10599,0.9218367
0.0279256,1.176003,3.168844,0.01678505,0.0134443,0.008476261,-1.004513,-0.2337805,2.194482,0.9223054
0.024967,1.575511,5.033513,0.4981346,0.02079283,0.009678578,-0.9966932,-0.1944447,2.320154,0.9347423
0.0219417,-0.6470351,4.963325,2.153505,0.01709236,0.01061591,-0.9932997,-0.2086418,2.429058,0.9819939
0.0239044,-1.922344,4.000421,2.274275,0.01035243,0.006796485,-1.011059,-0.2545943,2.524685,1.036359
0.021942,0.7683611,4.815121,0.4995148,0.01696897,0.005498608,-1.013317,-0.2377349,2.630339,1.047319
0.0229395,2.351256,6.177823,-0.1702845,0.02562535,0.005585255,-1.002056,-0.1837983,2.772055,1.043413
0.0259292,1.152476,6.924207,1.282101,0.03114753,0.00470081,-0.9937822,-0.1539155,2.951594,1.076657
0.0259293,-1.137845,4.844544,2.661554,0.02256557,0.004586006,-1.000752,-0.183419,3.07721,1.145669
0.0259693,-0.1655068,1.906328,0.7419636,0.02155587,0.003043302,-1.008129,-0.1877171,3.126716,1.164938
0.023904,1.467001,4.044707,-1.324677,0.02922178,-0.00102028,-1.016032,-0.1526499,3.2234,1.133273
0.0239688,1.271794,7.177524,-0.9951988,0.04104281,0.005049354,-0.9843435,-0.1221666,3.395437,1.109419
0.0249315,-2.11503,3.311427,1.855135,0.03717348,0.003852001,-1.008914,-0.1748974,3.477996,1.15567
0.020943,-0.8147821,1.736504,2.336213,0.02981177,0.00477136,-1.00532,-0.1919614,3.514364,1.204597
0.0219088,0.5693197,2.922645,0.3446536,0.02805949,0.007624279,-1.013289,-0.1794883,3.578395,1.212148
0.0219409,1.986837,6.885965,-1.60899,0.0422462,0.006831401,-0.9944904,-0.1358953,3.729479,1.176846
0.0259311,-0.4350771,6.179909,0.2006974,0.05108171,0.007393343,-0.9995273,-0.1471773,3.889731,1.18205
0.0249704,-1.382418,2.606526,2.930198,0.04408109,0.00422384,-1.005028,-0.1816969,3.954817,1.255218
0.0268938,0.1065572,2.541978,2.45697,0.03542355,0.008346487,-1.006698,-0.1788311,4.023181,1.321295
0.0289231,1.880241,5.874965,-0.4241341,0.05051893,0.004849136,-1.002861,-0.1244487,4.193103,1.309028
0.0239822,0.8397124,6.237758,0.243903,0.05957145,0.007085333,-0.9841039,-0.1043106,4.342699,1.314878
0.0249089,-1.964352,2.612329,2.787712,0.04633254,0.0007188134,-1.008824,-0.1532404,4.407769,1.384316
0.0219456,-0.1232011,2.316288,1.947853,0.04269477,0.0009597577,-1.010828,-0.1559442,4.458601,1.427063
0.0229096,2.145517,5.489185,-0.6182171,0.04775191,0.002534365,-1.005485,-0.1067912,4.584356,1.4129
0.0269301,0.9339212,5.813984,-1.536204,0.06524112,0.005066217,-0.9887068,-0.08164065,4.740927,1.37153
0.0269285,-1.450926,2.208921,1.07513,0.06126192,0.003435388,-1.003231,-0.1207119,4.80041,1.400481
0.0279608,-1.384697,1.09504,2.21275,0.05304965,0.004597552,-1.000013,-0.1594291,4.831028,1.462352
0.0269281,-1.185454,0.9363849,0.1084909,0.05287648,0.01002363,-1.008313,-0.1913511,4.856244,1.465273
0.023901,1.609976,3.453302,-1.292021,0.05868747,0.01320573,-1.005523,-0.1528711,4.938781,1.434393
0.0259617,1.412195,1.895066,-0.5520862,0.06622696,0.003681359,-1.000104,-0.1162081,4.98798,1.420059
0.0249006,0.8336489,0.854279,1.213043,0.06361951,-0.0007397821,-1.016346,-0.09544976,5.009252,1.450265
0.0239372,0.5601172,2.719545,1.241707,0.06119532,0.006993292,-0.9875169,-0.08204213,5.07435,1.479988
0.0269263,-1.844477,1.596915,1.523685,0.05915948,0.002380195,-1.011231,-0.1317071,5.117349,1.521015
0.0269276,0.1436135,1.280818,0.3894787,0.06063587,0.003422826,-1.001767,-0.1278399,5.151838,1.531503
0.0239703,2.670692,7.132967,-1.00988,0.06766506,0.009840583,-0.9890121,-0.06382259,5.322818,1.507296
0.0329123,-0.4096477,5.862873,-0.0671889,0.07961228,-0.0006326148,-0.9847713,-0.07730503,5.515779,1.505084
0.0328822,1.386641,5.238692,1.625438,0.06641343,0.007269712,-1.007187,-0.03170923,5.688038,1.558532
0.032907,-0.156093,4.573696,-0.02232334,0.07597578,0.0002447972,-1.00908,-0.03684578,5.838545,1.557798
0.032948,-1.601568,4.101695,0.5488296,0.08095658,0.004220773,-0.9977146,-0.08961423,5.973688,1.575881
0.0288911,-0.8146369,1.596162,0.5918623,0.07515428,0.003613779,-1.002202,-0.11315,6.019803,1.59298
0.0289547,2.254745,6.234279,-1.167067,0.0798325,0.003978938,-1.01722,-0.04786453,6.200314,1.559188
0.02594,1.007567,7.703485,-0.5287538,0.09875792,-5.802326E-05,-0.9846568,-0.02172825,6.400143,1.545472
0.0249013,-2.779128,3.003823,3.012925,0.08440942,0.001639969,-1.011174,-0.09093216,6.474942,1.620498
0.0229397,0.2216482,4.450431,1.691403,0.0778807,0.0005926788,-1.005009,-0.08584762,6.577033,1.659298
0.0239363,1.459243,8.027645,-1.201002,0.09215902,0.005655963,-0.9855557,-0.05091875,6.769185,1.630551
0.0209791,-0.4726044,7.00645,-0.92254,0.09909555,0.0008070106,-1.004382,-0.06083356,6.916174,1.611197
0.0219066,0.04099316,6.505152,-0.1092175,0.100595,0.007615162,-0.9990456,-0.05993554,7.05868,1.608804
0.0219732,-0.5710862,4.95632,0.7430928,0.1011365,0.0002341932,-0.9902644,-0.07248413,7.167586,1.625132
0.0269314,-2.192232,2.547892,1.273058,0.09708778,0.00504723,-1.000822,-0.131524,7.236204,1.659417
0.0219435,-0.9163578,2.482379,0.3229776,0.09506258,0.001713567,-1.014966,-0.1516321,7.290676,1.666505
0.023934,2.010823,4.120595,-1.711326,0.0987476,0.01266263,-0.9882464,-0.1035051,7.389298,1.625546
0.0209435,0.8896268,1.724486,-2.733046,0.110834,0.007168476,-0.9983112,-0.08487318,7.425415,1.568306
0.0229065,-0.261293,0.8740719,-0.4677355,0.1146779,0.006171554,-0.9926327,-0.09085849,7.445437,1.557592
0.0219747,-1.370294,0.9654056,2.236669,0.1047974,0.002160685,-1.002096,-0.1209703,7.466651,1.606742
0.0239016,-0.3837587,0.9790708,2.409304,0.09796896,-0.0004391652,-1.001339,-0.1301427,7.490053,1.664328
0.0219429,2.20207,4.812554,0.5554111,0.1002273,0.002790568,-1.008154,-0.08182295,7.595654,1.676516
0.0209442,1.474037,6.406316,-1.019727,0.1127851,0.002870195,-0.9747822,-0.05095042,7.729829,1.655158
0.0329485,-2.100629,4.900823,1.315042,0.117162,-0.0002761846,-0.994363,-0.120163,7.891304,1.698487
0.0239642,-2.313685,2.487663,2.587276,0.1089885,-0.0004860107,-1.005128,-0.1756086,7.950919,1.760489
0.0229113,-1.019171,2.20526,1.088243,0.1058099,0.004684108,-0.995325,-0.1989591,8.001444,1.785422
0.0239723,2.179017,9.954424,-1.219058,0.1159128,0.01406747,-0.9858214,-0.1467231,8.240074,1.756198
0.0248962,0.3234438,9.932776,-0.7684985,0.1310437,0.008511208,-0.9844498,-0.1386706,8.487363,1.737066
0.0219738,-1.821795,4.008522,1.780241,0.1238008,0.009820143,-1.00267,-0.1787023,8.575445,1.776184
0.0239274,-0.3973334,1.845569,1.935309,0.1190593,0.008388544,-0.992564,-0.1882095,8.619605,1.822491
0.0239132,-0.01554543,2.968797,0.3078085,0.1172959,-0.001957824,-1.016805,-0.1885812,8.690598,1.829852
0.0279236,3.063781,8.27393,-0.1522336,0.1394784,0.007141677,-0.974673,-0.1030294,8.921637,1.825601
0.0259308,-1.075228,3.460493,2.000634,0.1293993,0.005188198,-0.9999375,-0.1309109,9.01137,1.877479
0.020946,-0.6674538,1.615936,1.821385,0.1281334,-0.002921919,-0.9928994,-0.1448914,9.045218,1.91563
0.0249324,-1.044326,1.874465,0.3937269,0.1289924,-0.002547777,-0.9934992,-0.170929,9.091952,1.925446
0.0229421,2.810184,9.708052,-0.7726085,0.1396473,0.01035232,-0.9800422,-0.1064575,9.314675,1.907721
0.0248993,0.1317569,6.971218,0.2161452,0.1460578,0.0009995187,-0.9828479,-0.1031768,9.488254,1.913103
0.0219445,-1.662647,3.493995,1.535937,0.1397556,-0.004928303,-0.9953458,-0.1396628,9.564927,1.946808
0.0239354,-1.44392,2.205082,0.4223245,0.1350042,0.0003153784,-0.9976965,-0.1742236,9.617706,1.956917
0.0239336,2.334981,7.912446,-1.958462,0.1451889,0.01133905,-0.9961481,-0.1183391,9.807079,1.910044
0.0269632,-0.4322382,6.649655,-0.2679732,0.1606552,0.00238883,-0.9798414,-0.1299936,9.986375,1.902818
0.0249353,-3.217349,3.420725,2.957652,0.1466852,0.002627627,-1.006977,-0.2102192,10.07167,1.976568
0.0229297,-0.1524708,4.582995,0.9629478,0.1411593,0.008698804,-1.005776,-0.2137153,10.17676,1.998648
0.0248972,2.331765,6.313426,-1.55819,0.1524154,0.01425401,-0.9889305,-0.1556609,10.33394,1.959854
0.0259306,1.674043,5.936622,-1.34214,0.1649521,0.00780963,-0.984287,-0.1122519,10.48788,1.925051
0.0229383,-0.2965592,3.393842,0.9556424,0.1637932,0.000865452,-0.9872909,-0.1190545,10.56573,1.946972
0.0219346,-0.7075309,1.659933,2.018217,0.1538274,0.0001072129,-0.9902367,-0.1345739,10.60214,1.991241
0.0249305,-0.7030894,1.574436,0.2460549,0.157487,-0.003179929,-0.9891117,-0.1521023,10.6414,1.997375
0.0278899,1.63331,6.819194,-0.8852751,0.1637945,0.01075471,-0.9689586,-0.1065494,10.83158,1.972685
0.0279498,-1.623432,2.550171,0.4663798,0.1646629,0.002420572,-1.000263,-0.151924,10.90286,1.98572
0.0249425,0.02329759,1.413782,0.6701086,0.1645283,-0.002678087,-0.9863258,-0.1513429,10.93812,2.002434
0.025895,-0.8046269,0.9484468,0.1573565,0.16539,0.006141541,-0.9901769,-0.1721787,10.96268,2.006509
0.0239376,-0.2805008,3.2868,-0.2346511,0.1636073,-0.00176902,-1.013543,-0.1788933,11.04136,2.000892
0.023969,3.034832,6.198054,-0.807012,0.1741765,0.004887519,-0.9791692,-0.1061513,11.18992,1.981549
0.0269248,0.7421521,3.898818,0.3911686,0.1724177,0.003942916,-0.9852034,-0.08616905,11.2949,1.992081
0.0309173,1.344776,6.962034,0.2909277,0.1736944,0.008192914,-0.9808683,-0.04459219,11.51014,2.001076
0.0339368,-1.663385,4.063075,1.063776,0.1746663,0.00520875,-0.9904382,-0.1010422,11.64803,2.037177
0.0269023,-1.023711,2.226634,-0.0283707,0.1717784,0.0009360956,-0.9924641,-0.1285823,11.70793,2.036414
0.0249346,0.9468485,5.899671,-1.952203,0.1831543,0.004116175,-0.9855619,-0.104973,11.85504,1.987736
0.0259296,-1.659355,4.873166,-0.6383242,0.1854998,-0.002953976,-0.9855821,-0.1479995,11.9814,1.971185
0.0209454,-2.656925,2.684725,0.4009799,0.1794524,0.0001084665,-0.9912732,-0.2036498,12.03763,1.979583
0.0229741,0.05473065,4.7658,-1.243383,0.1760506,-0.0005602418,-1.003209,-0.2023924,12.14712,1.951018
0.0229026,3.023129,8.260837,-2.865672,0.1904802,0.007874737,-0.9766212,-0.1331549,12.33632,1.885386
0.0309432,-1.541008,2.896384,-1.002933,0.1902402,0.006725314,-0.9875414,-0.1808386,12.42594,1.854352
0.0259557,-1.72883,1.905176,-0.7334851,0.1936392,0.003182267,-0.9848278,-0.2257116,12.47539,1.835314
0.0249398,-1.595077,1.688186,-0.6823127,0.1919723,0.00699267,-0.9898474,-0.2654925,12.51749,1.818298
0.0229364,2.896843,7.68565,-1.910514,0.1928801,0.016746,-0.987195,-0.1990494,12.69377,1.774477
0.0239051,1.539954,5.5467,-2.28915,0.20451,0.007940616,-0.9769403,-0.1622366,12.82637,1.719755
0.0239628,-1.010485,2.148414,-0.1875594,0.1991523,0.006036685,-0.9880505,-0.1864507,12.87785,1.715261
0.0229364,-0.3778669,1.640672,0.1297216,0.1980091,0.004168642,-0.9832968,-0.1951176,12.91548,1.718236
0.0239356,0.1431835,1.56474,-0.6810836,0.199382,0.0007671211,-0.9848971,-0.1916904,12.95293,1.701934
0.0288971,2.011178,6.967735,-1.487778,0.195693,-0.003086691,-1.013774,-0.1335732,13.15428,1.658941
0.0259652,2.633301,9.173212,-1.220134,0.2176409,-0.002694977,-0.9474353,-0.065199,13.39246,1.62726
0.0239032,-3.438863,3.330258,1.558868,0.204195,0.002535977,-0.9905874,-0.1473988,13.47207,1.664522
0.0259585,-0.7015211,2.090102,-0.5694416,0.2043406,0.002967154,-0.9818797,-0.1656093,13.52632,1.64974
0.0229352,1.358712,5.876482,-2.836763,0.1980187,0.00578911,-1.006698,-0.1344469,13.6611,1.584679
0.0239464,2.156491,6.920967,-2.885646,0.2250567,-0.00284743,-0.9561716,-0.08280677,13.82683,1.515578
0.0229326,-1.689062,2.998979,-0.7383326,0.215718,0.003529047,-0.9851695,-0.1215414,13.89561,1.498646
0.0219124,-1.956689,1.759069,-0.4975795,0.2174926,0.005144337,-0.9698146,-0.1644171,13.93415,1.487743
0.0268932,-2.485055,1.488,-0.2034746,0.2157376,0.004764582,-0.9873672,-0.2312482,13.97417,1.482271
0.0249354,0.1431133,1.083189,-1.022117,0.213362,0.01083761,-0.9842897,-0.2276796,14.00118,1.456784
0.0259324,1.396359,0.4826616,-2.077276,0.2211166,0.006436659,-0.9780968,-0.1914687,14.0137,1.402915
0.0229697,2.064265,6.446375,-1.332357,0.2221081,0.0111501,-0.9702073,-0.1440531,14.16177,1.372311
0.0258982,-0.1929864,5.594206,-0.8203981,0.2255723,0.0007204143,-0.9599406,-0.1490511,14.30665,1.351064
0.0249349,-2.091085,2.52748,-0.4367042,0.222503,0.006102656,-0.9820047,-0.2011921,14.36967,1.340175
0.0229745,-0.7621999,1.74557,-0.851735,0.2249403,0.002808429,-0.9806494,-0.2187033,14.40978,1.320607
0.0239331,-0.06382893,1.53092,-1.048112,0.2202301,0.004455009,-0.974444,-0.2202309,14.44641,1.295522
0.0219463,1.368191,8.046091,-2.66736,0.223221,0.00952409,-0.9819723,-0.1902042,14.623,1.236984
0.027887,0.3016729,10.32493,-3.594654,0.2500242,0.007474767,-0.9675638,-0.1817914,14.91093,1.136739
0.0269527,-2.561007,6.835859,0.9788651,0.2428831,0.009922743,-0.973395,-0.2508175,15.09517,1.163123
0.0229395,-2.880738,3.353159,2.323122,0.2254236,0.005622489,-0.981237,-0.3169002,15.17209,1.216414
0.0249593,-1.058923,1.801368,-0.8407997,0.2295542,0.008201342,-0.9806786,-0.3433302,15.21705,1.195428
0.0219387,2.514544,5.786031,-3.042379,0.2465815,0.01478499,-0.9676779,-0.2881643,15.34399,1.128682
0.0239418,2.154664,7.396378,-1.52697,0.2588123,0.006833593,-0.9569197,-0.2365778,15.52108,1.092124
0.0209743,-2.137015,5.322079,2.053747,0.249479,0.009713721,-0.9741742,-0.2814002,15.6327,1.1352
0.022942,-2.324366,3.186217,2.958141,0.242765,0.009312631,-0.9735232,-0.3347258,15.7058,1.203065
0.0239363,-1.15332,1.865626,1.180936,0.241733,0.006899804,-0.9785781,-0.362332,15.75046,1.231333
0.0258969,0.5431788,1.581265,-1.11519,0.2454495,0.00859132,-0.9733729,-0.3482653,15.79141,1.202453
0.0229368,4.970719,9.819647,-2.68733,0.259788,0.01276125,-0.9480413,-0.234253,16.01664,1.140814
0.0229694,2.025721,9.34059,-1.146513,0.2696874,0.005475768,-0.9472356,-0.1877234,16.23119,1.114479
0.0239031,-1.847278,7.816259,3.010768,0.2623546,0.002789063,-0.9888971,-0.231879,16.41802,1.186446
0.0219722,-0.175117,9.146223,3.28862,0.2636808,0.008562811,-0.9566033,-0.2357267,16.61898,1.258704
0.0229086,-2.896041,5.382158,3.186775,0.261769,0.006325928,-0.9703707,-0.302071,16.74228,1.331709
0.0279284,-2.144662,2.164251,1.430041,0.2589662,0.005458047,-0.9702882,-0.361968,16.80272,1.371647
0.0229717,-1.11468,1.64417,-0.7035267,0.2662772,0.005976557,-0.9698279,-0.387574,16.84049,1.355486
0.0298844,0.13711,3.024648,-0.2075949,0.2678191,0.01251634,-0.9792024,-0.3834766,16.93088,1.349282
0.0269521,2.205976,5.438804,-0.2763015,0.276344,0.01098197,-0.9445425,-0.3240209,17.07747,1.341835
0.0288939,-1.087404,1.098697,0.9499212,0.2684683,0.01173548,-0.9714776,-0.3554402,17.10921,1.369282
0.0309176,0.372887,0.2341001,-0.1352926,0.272248,0.006856951,-0.9696265,-0.3439115,17.11645,1.365099
0.0279523,-0.233723,0.4406396,0.5673561,0.2735798,0.006416888,-0.9576008,-0.3504446,17.12877,1.380958
0.0279027,-2.031576,0.8259731,0.8848667,0.26969,0.00880532,-0.9706249,-0.407131,17.15182,1.405648
0.0259311,-0.7315207,0.8223479,0.2841211,0.2731059,0.0078423,-0.9703447,-0.4261002,17.17314,1.413016
0.0279242,0.2053679,0.7705075,0.4979178,0.2739214,0.005130887,-0.9659408,-0.4203654,17.19466,1.42692
0.0279282,-0.3974863,1.35513,0.0001799255,0.2727767,0.008401578,-0.9628677,-0.4314665,17.2325,1.426925
0.0259664,2.355668,7.164235,-0.5722431,0.2773699,0.0230586,-0.9423628,-0.3702983,17.41853,1.412066
0.0249325,-1.550722,4.090089,0.4546041,0.2834749,0.009653033,-0.9601547,-0.4089617,17.52051,1.4234
0.0219415,-1.908746,2.617814,1.626815,0.2818509,0.01397881,-0.9692153,-0.4508424,17.57795,1.459095
0.0249369,0.4798238,6.312687,2.386676,0.2779833,0.01545092,-0.9729295,-0.4388771,17.73536,1.518611
0.0219377,1.456775,8.506939,1.795012,0.279306,0.01255782,-0.9592047,-0.4069188,17.92199,1.55799
0.0219102,0.3925196,7.721282,0.6955136,0.2828889,0.009175122,-0.9621264,-0.3983186,18.09116,1.573229
0.0239269,1.011409,9.262159,0.3283648,0.2958198,0.009406998,-0.9514257,-0.3741187,18.31278,1.581085
0.0279237,-1.527508,4.911867,1.78102,0.2934945,0.003468438,-0.9595851,-0.4167724,18.44993,1.630818
0.0269288,-0.9504967,2.115096,1.274913,0.2887995,0.004830242,-0.9656391,-0.4423681,18.50689,1.66515
0.0249663,0.6556585,1.646339,-0.7727271,0.2983209,0.004805181,-0.9553495,-0.4259987,18.54799,1.645858
0.0249007,3.663917,9.40014,-1.089845,0.3038127,0.006006553,-0.9670417,-0.3347647,18.78206,1.61872
0.0229375,0.2156121,7.679471,0.2569935,0.305631,0.006106616,-0.944097,-0.3298191,18.95821,1.624615
0.0249422,-2.776088,2.769272,1.262261,0.2992827,0.01074825,-0.9671867,-0.3990608,19.02728,1.656098
0.0239346,-0.7392894,1.291466,0.2022579,0.3024358,0.009405613,-0.9650738,-0.4167554,19.05819,1.660939
0.0239349,1.669426,0.5926607,-0.7437298,0.302611,0.01058893,-0.9593024,-0.3767978,19.07238,1.643138
0.0289293,1.795094,1.162839,-1.449291,0.308946,0.00429759,-1.000332,-0.324867,19.10602,1.601211
0.0219344,4.760013,8.771108,-1.59174,0.3119879,0.02344832,-0.9405904,-0.220459,19.29841,1.566297
0.0249228,-0.5648924,5.291362,1.795639,0.3199117,0.003191624,-0.9549752,-0.2345377,19.43028,1.61105
0.0209577,-0.8026274,2.236452,3.713563,0.2996925,0.006787369,-0.9587513,-0.2513589,19.47715,1.688877
0.0219051,0.3341854,1.29793,0.8382298,0.299893,-0.003394813,-0.9512193,-0.2440386,19.50558,1.707239
0.0209441,-0.5444534,1.443025,-1.746928,0.312814,-0.002239236,-0.9509315,-0.2554417,19.53581,1.670651
0.0229154,0.260665,5.478993,-1.159986,0.3188258,0.003683236,-0.9562109,-0.2494684,19.66136,1.64407
0.019948,1.612779,7.577444,-0.01390865,0.322371,-0.006036396,-0.9425061,-0.2172967,19.81252,1.643792
0.0209441,-1.094115,4.7443,1.500611,0.3166647,0.002519523,-0.9479099,-0.2402119,19.91188,1.675221
0.0259665,-1.967108,1.962405,0.5363901,0.3156298,0.004877556,-0.9544029,-0.2912908,19.96284,1.689149
0.0219066,-0.8589233,1.142423,-1.080583,0.3216246,0.008587054,-0.9573687,-0.3101069,19.98786,1.665477
0.0229648,1.077646,0.08267165,-1.182461,0.3237322,0.007320315,-0.9490165,-0.285359,19.98976,1.638322
0.0239085,0.4288636,-0.598151,-0.3908967,0.3227439,0.006084525,-0.9474435,-0.2751055,19.97546,1.628977
0.0229758,-0.3821803,-0.9146814,-0.220464,0.3166834,0.01207601,-0.952992,-0.2838864,19.95444,1.623911
0.0259319,0.6681119,-1.25598,-1.182221,0.3233802,0.01099823,-0.9515696,-0.266561,19.92188,1.593254
0.0229721,1.249783,-1.096216,-0.4758847,0.3218225,0.006480024,-0.9524778,-0.2378508,19.89669,1.582322
0.0239016,0.8871779,-0.2175479,0.5048549,0.3218069,0.004267869,-0.9502867,-0.2166459,19.89149,1.594389
0.0259584,-0.06531916,0.3402029,1.670387,0.3198388,0.001679133,-0.9478771,-0.2183415,19.90032,1.637749
0.0259369,-1.389457,0.3744641,1.656394,0.3164655,-0.001492902,-0.9505141,-0.2543797,19.91004,1.680711
0.0239269,-1.959033,1.249312,0.8320544,0.3194027,-5.067326E-06,-0.951939,-0.3012533,19.93993,1.70062
0.0219287,-0.8703567,4.962854,0.4419514,0.3155607,-0.01224887,-0.9860242,-0.3203391,20.04876,1.710311
0.0259433,2.834443,10.31254,0.01236199,0.3332928,-0.00102635,-0.9173328,-0.2468042,20.3163,1.710632
0.0219296,-2.999681,4.298223,2.101295,0.3257561,0.005170171,-0.9547678,-0.312586,20.41056,1.756712
0.0239111,-1.04025,4.979027,1.25782,0.3224134,0.005565444,-0.9614249,-0.3374596,20.52961,1.786788
0.0219723,1.036697,8.286595,-1.347592,0.3339038,0.006710551,-0.9421552,-0.3146809,20.71169,1.757179
0.0259342,-0.2796306,9.720396,-1.150904,0.3427729,0.003816986,-0.9599634,-0.3219329,20.96378,1.727331
0.0259308,0.9223099,10.81254,0.5239843,0.3491425,0.01098542,-0.9320114,-0.2980167,21.24416,1.740918
0.02397,-1.731444,8.288434,1.947205,0.3444882,0.008333433,-0.940299,-0.3395194,21.44283,1.787593
0.0239024,-1.180411,7.321877,1.240691,0.3370378,0.005184713,-0.949237,-0.3677341,21.61784,1.817248
0.0229752,1.599347,9.218406,-1.346005,0.3519279,0.007510455,-0.939969,-0.3309888,21.82964,1.786323
0.023899,0.9494112,9.810085,-0.9863741,0.3647937,0.002758751,-0.9326131,-0.3082988,22.06409,1.76275
0.0279245,-1.278736,7.816917,1.707114,0.3567276,-0.0002738936,-0.9410675,-0.3440069,22.28237,1.81042
0.0279252,0.529186,7.289567,0.572823,0.358487,0.0001815809,-0.9349141,-0.3292292,22.48593,1.826416
0.0309217,-0.3919712,6.192469,-0.4526772,0.3656679,-0.0006515058,-0.9332389,-0.3413497,22.67741,1.812419
0.0339093,0.4015709,6.889785,-0.4785489,0.3714497,0.005523052,-0.9398676,-0.3277327,22.91104,1.796192
0.0299217,2.59971,5.756843,-0.4362929,0.3753296,0.0069223,-0.9273078,-0.249945,23.0833,1.783137
0.0329436,-0.1059041,2.194041,-0.09435559,0.3704626,0.005193903,-0.9277468,-0.2534338,23.15557,1.780029
0.0259298,-0.5762277,1.128607,-0.5531967,0.3758896,0.00794702,-0.9341583,-0.2683753,23.18484,1.765684
0.0269273,-0.5599328,1.156343,0.2856121,0.3758237,0.005704523,-0.9274328,-0.2834527,23.21598,1.773375
0.0229074,-1.250827,2.160653,0.4941742,0.374911,0.002923549,-0.932121,-0.312106,23.26547,1.784695
0.0239611,3.3247,8.704931,-0.6387587,0.3806374,0.004463701,-0.9211314,-0.2324425,23.47405,1.76939
0.0239074,2.214787,7.05219,-0.6564046,0.3824324,-0.0007378282,-0.9271517,-0.1794927,23.64265,1.753697
0.02992,0.8979875,6.400427,-0.3383256,0.3826421,0.001861765,-0.9140154,-0.1526249,23.83415,1.743574
0.0239719,-2.12652,4.019536,-0.38276,0.3873197,-0.001689394,-0.9275891,-0.2036016,23.93051,1.734399
0.0238995,-1.400831,2.376986,-0.1321068,0.3862641,0.0004113642,-0.9321228,-0.2370808,23.98732,1.731241
0.0239721,-0.08871938,1.609258,-0.7100531,0.3860319,0.005483952,-0.9240005,-0.2392075,24.0259,1.71422
0.0229407,0.97585,5.965563,-1.862753,0.3856519,0.009291159,-0.9460428,-0.2168209,24.16275,1.671487
0.0219728,3.524943,9.944404,-2.84449,0.3975916,0.003978615,-0.9100189,-0.139368,24.38126,1.608986
0.0219417,1.250965,7.131457,-1.164485,0.406516,0.005989632,-0.9125931,-0.1119197,24.53773,1.583435
0.0239692,-0.613831,3.965551,1.646026,0.3976332,0.002779981,-0.9133363,-0.1266327,24.63278,1.622889
0.0278898,-0.7658973,5.745505,1.288595,0.3939161,-0.00255926,-0.9391596,-0.1479934,24.79302,1.658828
0.0219822,1.277426,9.584064,-0.2530647,0.4017163,0.004791365,-0.919279,-0.1199128,25.0037,1.653265
0.0238939,0.8333755,10.4596,-0.675528,0.4118387,0.003001282,-0.9185552,-0.1000002,25.25362,1.637124
0.0249332,0.2889742,9.233202,0.162918,0.4137877,-0.003672671,-0.9049715,-0.09279516,25.48384,1.641186
0.0249336,-1.059588,6.088945,0.5127575,0.4076133,-0.00225398,-0.9206042,-0.1192145,25.63565,1.65397
0.0229399,-0.3804199,6.095929,-1.077695,0.4141525,0.0004397975,-0.917319,-0.1279413,25.77549,1.629248
0.0219182,0.4275862,7.168764,-1.568903,0.4234309,0.0005365452,-0.907154,-0.1185694,25.93262,1.594861
0.0239343,-1.017195,4.695544,-0.1088003,0.4249613,0.002346084,-0.9028327,-0.1429152,26.045,1.592257
0.0239723,-2.206879,3.129296,0.81243,0.4233267,-9.056646E-05,-0.9414812,-0.1958192,26.12002,1.611732
0.0259439,2.068941,10.05685,-1.182162,0.4297047,0.003020779,-0.8908803,-0.1421428,26.38093,1.581063
0.0249311,-0.06530729,7.749726,-0.8411534,0.4302481,0.005577125,-0.9077717,-0.1437709,26.57414,1.560092
0.0249346,-0.1491227,4.751629,-0.5272881,0.4329621,0.003821519,-0.8989252,-0.1474893,26.69262,1.546944
0.0249328,-1.247542,2.543978,-0.2170811,0.4343846,0.006691049,-0.9072233,-0.178594,26.75605,1.541532
0.0229358,-1.32601,3.116388,0.2960691,0.4344636,0.001867652,-0.9345904,-0.2090071,26.82753,1.548322
0.024935,3.09854,10.07717,-1.651935,0.4386019,0.002323131,-0.8900414,-0.131745,27.0788,1.507131
0.021942,0.68457,7.598361,-1.24904,0.4480814,-0.00169249,-0.8855409,-0.1167241,27.24553,1.479725
0.0299199,-2.803445,2.947752,1.045822,0.4417371,-0.0002794247,-0.9188268,-0.2006029,27.33372,1.511016
0.0249316,0.7951849,7.013026,-0.8235889,0.4414186,0.00425155,-0.9027418,-0.1807777,27.50857,1.490482
0.0229913,1.771411,7.464073,-1.907412,0.4532354,0.001164394,-0.8893809,-0.1400507,27.68018,1.446628
0.0229676,-0.1603282,5.846055,-0.3338373,0.4487831,0.004679963,-0.9070619,-0.143733,27.81445,1.438961
0.0229415,-0.2386051,6.718704,-0.1741521,0.4524644,0.005175745,-0.8872788,-0.149207,27.96858,1.434966
0.0239369,-1.393641,5.796495,-0.04718221,0.4529677,0.006679591,-0.9111649,-0.1825664,28.10733,1.433836
0.021908,1.218741,6.512248,-0.399065,0.4554182,0.007285447,-0.8904153,-0.1558663,28.25,1.425094
0.0229386,-0.2410966,4.17355,-0.1546317,0.4595763,0.004374094,-0.8903848,-0.1613967,28.34574,1.421546
0.0229058,-1.755153,2.151699,0.5396527,0.4552484,0.006472457,-0.8967969,-0.2015999,28.39502,1.433908
0.0289223,-0.4282007,1.619231,-0.5867382,0.4588228,0.005532123,-0.8998244,-0.2139844,28.44185,1.416938
0.0259305,4.071109,7.868837,-1.827418,0.4607443,0.01279222,-0.888719,-0.1084185,28.6459,1.369552
0.0229385,-0.07336257,4.745561,-0.6291341,0.4683192,0.004268249,-0.8868469,-0.1101014,28.75475,1.355121
0.0219396,-2.344367,2.494076,0.9488961,0.4640651,0.003768267,-0.8880053,-0.1615358,28.80947,1.375939
0.0239379,-1.88653,3.311543,0.6345588,0.456743,0.0002074987,-0.9083443,-0.2066954,28.88874,1.391129
0.0209753,1.143068,5.972943,-0.9852552,0.4688802,-0.001877183,-0.8802633,-0.1827192,29.01403,1.370463
0.0239393,0.7530102,5.005653,-1.05894,0.4695698,0.00196734,-0.8888088,-0.1646927,29.13386,1.345113
0.0209206,-0.1464463,4.003843,-0.7395824,0.4740022,0.005782158,-0.8719354,-0.1677564,29.21762,1.32964
0.0239346,-2.868899,2.019822,0.1195738,0.4736012,0.0100662,-0.8922586,-0.2364224,29.26597,1.332502
0.0309155,-0.4607966,1.468443,0.7326686,0.4689153,0.007689139,-0.886816,-0.2506681,29.31136,1.355153
0.0269638,0.2246097,1.233305,-0.7571967,0.4720396,0.005350198,-0.8817685,-0.2446118,29.34462,1.334736
0.0299202,5.252213,11.29442,-1.786542,0.4813528,0.0137656,-0.8557333,-0.08746454,29.68255,1.281282
0.0239711,-1.145896,6.419309,0.5189668,0.4872288,0.002619916,-0.8646867,-0.1149329,29.83643,1.293723
0.0258964,-0.4835314,7.373966,0.9420036,0.475591,0.01149364,-0.8852376,-0.1274547,30.02739,1.318117
0.021976,-0.8654029,7.859127,-0.1526401,0.4859912,0.007131338,-0.8646707,-0.1464728,30.2001,1.314763
0.0249264,-1.96944,6.238036,0.511694,0.4843792,0.008600511,-0.8847829,-0.1955638,30.35559,1.327517
0.0239084,-0.6750928,6.208148,0.1561642,0.4872907,0.006646395,-0.8826771,-0.2117042,30.50401,1.331251
0.0289584,-2.056611,4.099856,0.4993829,0.4959192,0.009286007,-0.8698058,-0.2712604,30.62274,1.345712
0.0239375,-0.8385397,6.490047,1.174955,0.4873018,0.01419098,-0.8973342,-0.2913329,30.7781,1.373838
0.029883,1.412789,7.991919,0.3791861,0.5046529,0.01167135,-0.8553415,-0.2491145,31.01692,1.385169
0.0239395,-2.176187,2.89659,2.421767,0.4956211,0.006633112,-0.874976,-0.3012114,31.08626,1.443145
0.0239026,1.120664,4.975893,0.3884987,0.4987785,0.008156912,-0.8632822,-0.2744246,31.2052,1.452431
0.0229409,0.7979289,3.185226,-0.3595369,0.5055192,0.001231715,-0.8637382,-0.2561193,31.27827,1.444183
0.0229698,-0.4053861,1.524926,0.2905266,0.5018179,0.004199642,-0.8719755,-0.265431,31.3133,1.450856
0.0258997,-0.5462887,1.283638,0.2720833,0.505918,0.005903453,-0.8683591,-0.2795797,31.34654,1.457903
0.0289188,-0.9334992,2.178951,1.030589,0.5066988,-0.005763839,-0.9125578,-0.3065754,31.40956,1.487707
0.0289535,3.641406,9.067109,-0.3351414,0.5032861,0.01404825,-0.8649027,-0.201144,31.67208,1.478003
0.0249038,-1.434686,4.811525,0.5140716,0.5129228,0.01140063,-0.8640682,-0.2368731,31.7919,1.490805
0.0219414,0.5786475,7.248203,0.717502,0.5084062,0.01274778,-0.8861778,-0.2241767,31.95094,1.506548
0.0249337,1.36912,8.825831,0.1226183,0.5178964,0.006683683,-0.8489633,-0.1900395,32.171,1.509606
0.022938,-0.9303972,7.812979,0.917591,0.5183981,0.003169234,-0.8709227,-0.211381,32.35022,1.530653
0.0239355,-0.09992931,8.450379,0.7463186,0.5227655,0.002612501,-0.857635,-0.2137728,32.55248,1.548517
0.0249323,0.1025223,8.072315,0.5603907,0.526131,0.001986193,-0.8529404,-0.2112167,32.75374,1.562489
0.0259332,-1.297106,4.431648,0.8509237,0.5201664,-0.002439368,-0.8524307,-0.2448548,32.86866,1.584556
0.0249026,-1.811798,2.291838,-0.4118874,0.5263123,-0.00091442,-0.8572485,-0.2899733,32.92574,1.574299
0.0249689,-0.7682306,1.595431,-0.3225347,0.5272915,0.000560604,-0.8580844,-0.3091552,32.96557,1.566246
0.0239221,0.7225653,0.9495999,-0.7743928,0.5275944,0.005052043,-0.8540047,-0.2918699,32.98829,1.54772
0.0249451,0.7542368,0.994347,-1.097605,0.5328932,0.006504022,-0.8484142,-0.2730554,33.01309,1.520341
0.0229404,-1.58503,1.370684,0.3365926,0.5339763,0.009437139,-0.8481356,-0.3094166,33.04454,1.528062
0.0259127,2.963797,9.470848,-0.1902462,0.5288115,0.02094084,-0.8374549,-0.2326166,33.28995,1.523132
0.0229198,1.756868,5.885845,-0.2641572,0.5388245,0.009612588,-0.8344693,-0.1923496,33.42485,1.517078
0.0289265,-0.3983695,2.125456,0.5051858,0.5358324,0.006696182,-0.8385709,-0.203873,33.48634,1.531691
0.0268991,-1.190055,4.710326,0.4517106,0.5366876,0.005696533,-0.8712955,-0.2358844,33.61304,1.543842
0.0259291,2.207716,8.865887,0.141625,0.5441978,0.0003406117,-0.8317712,-0.1786404,33.84293,1.547514
0.0229716,-0.07165724,6.455415,0.8092669,0.5378317,0.002646377,-0.8524258,-0.1802865,33.99122,1.566104
0.0248996,0.6569833,6.973893,-0.1358567,0.5447574,-0.0005928287,-0.8378997,-0.1639278,34.16487,1.562721
0.0219409,-0.8614358,6.120457,-0.006418681,0.5489494,0.001827591,-0.8318257,-0.1828285,34.29916,1.562581
0.0278926,-2.795632,3.07895,0.540266,0.5466706,0.0005673347,-0.8458359,-0.260806,34.38504,1.57765
0.0279234,0.5024431,7.872091,-0.653761,0.5502126,0.01262833,-0.8395807,-0.246776,34.60485,1.559395
0.0279268,-0.3344744,8.152837,-0.2164651,0.5543351,0.009083632,-0.8361228,-0.2561168,34.83253,1.55335
0.0239676,-0.07708008,8.168576,-0.3142994,0.5608777,0.01092287,-0.8328435,-0.2579643,35.02832,1.545817
0.0249276,-0.2137001,8.963326,0.1582368,0.5703722,0.005203083,-0.8290901,-0.2632913,35.25175,1.549761
0.0229435,-1.324267,7.62768,1.920032,0.5611379,0.005182215,-0.832267,-0.2936746,35.42676,1.593813
0.0239717,-0.3413911,6.722893,0.4425495,0.5598177,0.008370742,-0.8353255,-0.3018583,35.58792,1.604422
0.0219232,1.237909,7.712254,-1.488116,0.5716347,0.01030106,-0.8237686,-0.2747194,35.757,1.571798
0.022948,-0.6669571,6.715561,0.2189503,0.5807205,0.002179374,-0.8262882,-0.2900247,35.91111,1.576822
0.0229364,-1.926835,7.051748,2.701985,0.5706441,0.003189975,-0.8199073,-0.3342193,36.07285,1.638796
0.0279007,-1.901947,5.84062,2.285463,0.5673118,0.006039097,-0.8283861,-0.387285,36.23581,1.702562
0.0309439,4.114704,8.067957,-1.516481,0.5750007,0.007300725,-0.8292643,-0.25996,36.48546,1.655636
0.0239356,1.587457,5.489347,-0.7035432,0.5874201,0.0001005372,-0.8028088,-0.2219633,36.61685,1.638797
0.0229119,-1.463218,5.252568,1.18049,0.5779632,-5.639903E-05,-0.8408014,-0.2554884,36.73719,1.665844
0.0239361,0.1746427,8.311275,0.2057491,0.5881653,0.006230637,-0.8061896,-0.2513081,36.93613,1.670769
0.0279219,-2.068253,6.3205,0.7200385,0.5894331,0.00675473,-0.8107058,-0.3090577,37.11261,1.690874
0.0279254,-2.157578,2.994262,1.129295,0.5840281,0.005434125,-0.8177677,-0.3693089,37.19623,1.722409
0.0289263,-0.2787882,5.301211,-0.7224976,0.5806963,0.004391368,-0.8468662,-0.3773732,37.34957,1.70151
0.0339413,1.331438,10.6825,-1.410212,0.6067848,0.0001478856,-0.7783024,-0.3321825,37.71215,1.653646
0.0279203,-0.185818,8.935163,0.4114659,0.5948711,0.01049349,-0.8184588,-0.3373706,37.96162,1.665134
0.0249419,1.186224,10.13403,-0.5658567,0.6074478,0.001601979,-0.7945871,-0.3077839,38.21439,1.651021
0.0259284,-1.025115,7.705933,0.7626845,0.6091159,-0.003725453,-0.8001195,-0.3343635,38.41419,1.670796
0.0248985,-1.15035,7.200735,0.5431685,0.601297,0.004258664,-0.8127851,-0.3630055,38.59348,1.68432
0.0239353,1.139184,9.392448,-1.375316,0.6147756,0.009105965,-0.7981234,-0.3357388,38.81829,1.651401
0.0249693,0.3610222,5.673748,0.1434749,0.6138839,0.0006353473,-0.7916961,-0.3267243,38.95996,1.654984
0.0288854,0.04189667,2.44322,0.02082215,0.6159791,0.001441465,-0.7829621,-0.3255141,39.03053,1.655585
0.0269307,-2.130377,2.568275,-0.2329205,0.6177213,0.0005149478,-0.8077079,-0.3828866,39.09969,1.649312
0.0249646,4.22292,11.61409,-1.946425,0.6245809,0.0007115668,-0.777469,-0.2774631,39.38963,1.600721
0.0268959,0.8563189,6.626684,-0.8497548,0.6285443,0.00301784,-0.7727469,-0.2544316,39.56786,1.577866
0.0239359,-1.713852,2.241753,0.2175292,0.6230707,0.006917865,-0.7754833,-0.2954542,39.62152,1.583072
0.0269581,-3.925532,1.175712,0.6313677,0.6289207,0.001972116,-0.8172451,-0.4012791,39.65322,1.600093
0.0249013,2.05537,8.973803,0.2399227,0.6170641,0.0209693,-0.7997298,-0.3500977,39.87668,1.606067
0.0219745,3.185761,12.42278,-0.8223681,0.6350803,0.007716956,-0.7589062,-0.2800922,40.14966,1.587996
0.0239701,-1.106809,11.46941,1.017438,0.6356264,0.008390041,-0.7863523,-0.3066225,40.42458,1.612384
0.0239315,-0.753786,9.959653,1.327698,0.6374851,0.008269731,-0.7669633,-0.3246617,40.66293,1.644158
0.0279266,-1.337261,5.784706,1.209267,0.6361753,0.002408945,-0.7677552,-0.3620069,40.82448,1.677929
0.0249352,-1.381634,4.619154,-0.1819629,0.633831,0.0005941791,-0.8086144,-0.3964582,40.93966,1.673391
0.0229356,3.988921,11.4637,-2.156277,0.6539546,0.004162403,-0.7438692,-0.30497,41.20259,1.623936
0.0249357,-1.110914,6.057139,0.3575479,0.6568056,0.003664033,-0.7587923,-0.3326714,41.35363,1.632852
0.0229361,-1.199889,2.562069,1.737519,0.6406757,0.002299627,-0.7665979,-0.3601922,41.4124,1.672704
0.0239261,-0.0663816,1.653854,-0.4076315,0.6449378,0.003538634,-0.7664149,-0.3617804,41.45197,1.662951
0.0219182,1.774215,6.068762,-1.380697,0.6469914,0.01902833,-0.7811148,-0.3228928,41.58498,1.632688
0.0259321,5.131279,10.00691,-2.095895,0.6630984,0.004006252,-0.7324818,-0.189828,41.84448,1.578337
0.0249648,-0.538676,3.86327,0.5661373,0.6593651,0.008080094,-0.7602016,-0.2032759,41.94093,1.592471
0.022906,-1.314276,1.698382,1.418768,0.6499756,0.003143602,-0.7586339,-0.2333807,41.97983,1.624969
0.0239346,-0.6641745,2.187895,-0.2862736,0.6587902,-0.0004932489,-0.7932411,-0.2492775,42.0322,1.618117
0.0229661,4.437118,8.139843,-1.287294,0.6655473,0.006960117,-0.7343929,-0.1473742,42.21914,1.588553
0.021949,2.174348,6.849457,-0.3046987,0.662599,0.01006651,-0.7445812,-0.09964943,42.36947,1.581865
0.0219758,-1.73014,3.228749,0.8741606,0.6602679,0.004858773,-0.7524905,-0.1376706,42.44043,1.601076
0.0209423,-1.782803,2.128817,0.8023243,0.6596122,0.0008630315,-0.7579194,-0.1750066,42.48501,1.617878
0.027916,1.709624,5.032058,-0.4832354,0.6561007,0.004239557,-0.772403,-0.1272808,42.62548,1.604388
0.0299197,1.675703,5.055474,-1.222339,0.6719533,-0.0009269323,-0.7373112,-0.07714425,42.77674,1.567816
0.0229274,-2.023165,2.193476,0.6648396,0.6689005,0.001210495,-0.7487333,-0.1235301,42.82703,1.583059
0.0229358,-0.2926324,5.381746,0.4146809,0.6644982,0.0109735,-0.7511711,-0.1302419,42.95047,1.59257
0.0219101,1.191543,6.105094,-0.5980762,0.6725503,0.003595936,-0.737763,-0.1041351,43.08423,1.579466
0.0239342,-0.2918638,2.48991,-0.05201039,0.6706196,0.002693706,-0.7502956,-0.1111206,43.14382,1.578221
0.0209439,-0.08133374,1.255911,-0.4332829,0.6712215,0.006534569,-0.7399653,-0.112824,43.17012,1.569147
0.0239364,-1.717292,1.114429,-0.4949893,0.677008,0.007817008,-0.7452794,-0.1539298,43.1968,1.557299
0.024933,-1.63691,1.113343,0.9719845,0.6713791,0.003570375,-0.7530996,-0.1947429,43.22456,1.581533
0.0249337,4.718468,7.960437,-0.7109312,0.6667176,0.01846282,-0.7559955,-0.07709402,43.42304,1.563807
0.0259274,2.895092,7.480069,-1.031865,0.6887506,0.002849489,-0.7245778,-0.002031818,43.61698,1.537053
0.0249004,-2.30255,3.22027,2.122196,0.6764473,-0.004932228,-0.756161,-0.05936623,43.69717,1.589897
0.0219744,-0.3683697,5.80391,1.277333,0.6734887,0.001007964,-0.7334793,-0.06746093,43.8247,1.617966
0.0219448,0.6982219,7.706084,0.1526511,0.6791633,-0.001424565,-0.7493621,-0.05213859,43.99381,1.621315
0.0228984,3.001974,9.193381,-0.5924009,0.6886913,-9.341165E-07,-0.7182242,0.01660181,44.20433,1.60775
0.0219779,-0.06165839,6.009467,0.5904683,0.6937962,0.002581454,-0.7175313,0.01524669,44.3364,1.620728
0.0239358,-3.363794,2.881423,2.377091,0.6859211,-0.001020853,-0.7319936,-0.0652684,44.40537,1.677625
0.0229083,-1.164982,4.086939,1.0694,0.6822269,4.265551E-05,-0.7292119,-0.09195617,44.499,1.702123
0.0388883,-0.5082576,1.053049,-0.7178131,0.6903746,0.005449712,-0.7289529,-0.1117214,44.53995,1.674209
0.0319149,-0.09361636,0.4026564,-0.1910534,0.6877895,0.002437463,-0.7367275,-0.1147092,44.5528,1.668111
0.0329131,1.130618,0.4607715,-0.4613437,0.6936292,0.004095317,-0.7250001,-0.07749707,44.56797,1.652927
0.0269646,-0.1558216,0.2203157,0.709659,0.6886678,0.00360683,-0.7283735,-0.08169873,44.57391,1.672063
0.0229042,0.1060074,0.3349086,0.3474926,0.6851847,0.003868001,-0.7333171,-0.07927071,44.58158,1.680022
0.0249035,0.727974,0.7708062,-0.08772697,0.6964208,0.0003062161,-0.7224182,-0.06114161,44.60077,1.677837
0.0269264,-1.593192,1.044158,1.350688,0.6894054,-0.01151307,-0.7674484,-0.1040405,44.62889,1.714206
0.0249655,3.325182,9.796657,-0.3418391,0.6818703,0.01588211,-0.7246942,-0.0210257,44.87347,1.705672
0.0259348,2.538564,8.024937,-1.370435,0.705684,-0.0013925,-0.6992726,0.04481145,45.08159,1.67013
0.0219442,-0.8320768,3.002772,1.104971,0.6964408,0.0006123083,-0.7133451,0.02655219,45.14749,1.694378
0.0229368,-2.868826,2.17148,1.255718,0.6950585,-0.001474897,-0.7309049,-0.03924951,45.1973,1.72318
0.0239352,-0.9406883,3.671002,0.2844486,0.6981999,-0.001429145,-0.7172602,-0.06176507,45.28516,1.729988
0.0239385,-0.01373833,1.230327,-0.1768156,0.6933028,0.001058149,-0.7274766,-0.06209394,45.31462,1.725756
0.021905,1.771088,0.2208992,-1.480942,0.6968644,0.001138332,-0.7187297,-0.02329825,45.31945,1.693316
0.0239746,1.121259,-0.04552974,-1.046581,0.7048918,0.001406114,-0.7167915,0.003583495,45.31836,1.668224
0.0249364,-0.2533668,0.2960922,0.7966629,0.6997955,0.001765885,-0.7193025,-0.002734561,45.32575,1.68809
0.0259314,-0.03832235,0.5284408,0.2224736,0.6959338,-0.0009191977,-0.7220648,-0.003728314,45.33945,1.693859
0.0259617,1.030027,0.5291621,-0.632999,0.6993009,-0.002278789,-0.7172527,0.02301293,45.35319,1.677425
0.0248999,-0.2787014,0.8746102,-0.4442226,0.7010553,-0.0002354896,-0.711211,0.01607329,45.37497,1.666364
0.0229715,-0.8321168,5.222177,0.5569013,0.6947806,0.01216017,-0.7436848,-0.003041679,45.49493,1.679157
0.0229374,4.049573,10.05131,-0.4716218,0.7094296,-0.008077967,-0.6827252,0.089845,45.72548,1.668339
0.0239356,-0.7853127,4.050162,0.3856122,0.7011829,-0.001504539,-0.7222501,0.07104807,45.82242,1.677569
0.0269298,-0.9676934,1.494313,0.3732248,0.7101042,0.002683532,-0.7033582,0.04498828,45.86266,1.68762
0.0259286,-2.345903,2.410747,1.556931,0.7042142,-0.001428331,-0.7316511,-0.01583769,45.92517,1.727989
0.025966,0.1928281,3.39805,0.2639043,0.7016039,-0.001615802,-0.7052075,-0.01083071,46.0134,1.734842
0.0259282,0.0134522,0.3618462,-1.312432,0.7059413,0.002850521,-0.7129688,-0.01048192,46.02279,1.700813
0.0259004,0.7373105,-0.4863201,-1.714457,0.7096852,0.004191387,-0.7100947,0.008614715,46.01019,1.656407
0.021976,0.3344106,-0.6564497,-1.001211,0.711289,-0.001052508,-0.7098662,0.01596372,45.99576,1.634405
0.0249315,-0.2904277,-0.5766435,0.04815145,0.7079402,-0.0001713848,-0.7161524,0.008722924,45.98138,1.635605
0.0259334,0.7546147,-0.2045473,0.1559671,0.7063468,-0.001896566,-0.7148353,0.02829265,45.97608,1.63965
0.022974,1.113853,-0.144883,0.06281789,0.7078916,-0.004361381,-0.7102982,0.0538823,45.97275,1.641093
0.024897,-0.09959984,0.0109753,0.5530626,0.7084664,-0.003767953,-0.7073452,0.05140257,45.97302,1.654863
0.0229726,-1.073238,0.04916428,0.491177,0.7030718,-0.0005544694,-0.7169498,0.0267475,45.97415,1.666147
0.0248993,0.3898774,0.2274475,-0.9170834,0.7083697,-0.001917654,-0.7102755,0.03645518,45.97982,1.643312
0.0229717,0.3493479,-0.08213942,-0.8947485,0.708583,0.0002677096,-0.7082966,0.04448029,45.97793,1.622758
0.0229039,-0.9611332,-0.2921532,-0.5078531,0.7026648,0.003579769,-0.7147198,0.02246659,45.97124,1.611126
0.0229422,-0.6089298,-0.3452044,-1.433159,0.701829,0.004565699,-0.7166844,0.008496405,45.96332,1.578246
0.0229379,1.043259,-0.7184511,-2.763974,0.7087893,0.007049756,-0.7182986,0.03242657,45.94684,1.514846
0.0239675,2.291719,-1.196011,-1.829663,0.7117935,0.003242882,-0.7128949,0.08735334,45.91817,1.470994
0.0229366,1.790124,-1.334539,-0.3272126,0.7027487,-0.0004810421,-0.7098436,0.1284127,45.88757,1.463489
0.0229414,0.6583465,-0.886403,-0.9289898,0.7066886,0.002373678,-0.7141888,0.1435161,45.86723,1.442176
0.0278922,0.6136191,-0.02230682,-0.1116219,0.7093789,0.0005544899,-0.7141686,0.1606313,45.86661,1.439063
0.0239381,0.6388873,0.4444147,1.034907,0.7045069,4.686881E-05,-0.7145991,0.175925,45.87725,1.463837
0.02992,-0.03211246,0.5521624,0.8798414,0.7064403,-0.000934164,-0.7126211,0.1749642,45.89377,1.490162
0.0259312,-0.6356677,0.6417114,1.068861,0.704492,3.784802E-05,-0.7132511,0.1584806,45.91041,1.517878
0.0229751,-0.6293676,0.6556287,0.6947978,0.7027951,-0.0002081878,-0.7141314,0.1440208,45.92547,1.533841
0.0249012,-0.5687431,0.6489137,0.0183639,0.7053238,0.0003955895,-0.7113998,0.1298584,45.94163,1.534299
0.023961,-0.5450083,0.7722283,0.2576739,0.7065553,0.001142518,-0.712728,0.1167995,45.96014,1.540473
0.0229125,-0.9572246,0.9966511,0.8204522,0.7097196,0.001397545,-0.7121974,0.09486705,45.98297,1.559271
0.0259323,-1.836072,1.243995,1.311051,0.706096,0.001157561,-0.7153076,0.04725349,46.01523,1.59327
0.0249332,-1.217497,1.357689,1.099162,0.7076461,0.001143317,-0.7121018,0.01689738,46.04908,1.620676
0.0229641,-0.8958611,0.885589,1.193002,0.7060388,0.001490173,-0.7102804,-0.00367526,46.06942,1.648072
0.026901,-0.6319628,0.4183579,0.4922077,0.7058438,0.002864738,-0.7151763,-0.02067569,46.08067,1.661313
0.0249335,0.6041878,0.0470657,-0.03831658,0.709706,4.32143E-05,-0.7104908,-0.005611173,46.08185,1.660357
0.0289582,-0.05509386,0.1348624,0.6568375,0.7100514,-0.001313585,-0.708167,-0.007206592,46.08575,1.679378
0.0259254,-0.4097628,-0.140223,0.6360189,0.7034059,0.0008965116,-0.7146066,-0.01782986,46.08212,1.695867
0.0259063,1.238499,-0.264501,-0.8904137,0.7055841,3.946666E-05,-0.7127474,0.01425506,46.07527,1.6728
0.0269613,0.6114586,-0.185307,-0.7535642,0.7117465,-0.001313346,-0.7070432,0.03074078,46.07027,1.652483
0.0268936,-0.468377,0.05014039,0.002640795,0.7060792,-0.001789519,-0.712754,0.01814443,46.07162,1.652554
0.0239349,-0.02733319,0.05994733,-0.5241637,0.7053283,0.0002759742,-0.7117683,0.01749022,46.07305,1.640008
0.0229396,0.0427263,0.08980926,-1.055376,0.7088348,0.001007822,-0.709269,0.01847034,46.07511,1.615798
0.0269291,-0.3513592,0.3248788,-0.5951071,0.7098323,0.002004377,-0.711579,0.009008554,46.08386,1.599773
0.0269649,-0.03915755,0.1461642,-0.1357166,0.7098109,0.0008900994,-0.709258,0.007952674,46.0878,1.596113
0.0239005,-0.5458207,0.08598561,0.3823158,0.7100551,0.001503215,-0.7094959,-0.005092713,46.08986,1.60525
0.0259305,-0.717357,0.2255953,0.6790563,0.7055637,0.003086484,-0.7119912,-0.02369414,46.0957,1.622859
0.0279239,-0.008428552,0.1704663,0.02953019,0.7068107,0.002007169,-0.7140673,-0.0239295,46.10046,1.623683
0.0229384,0.8444099,-0.1821862,-0.04375545,0.7101861,0.001264525,-0.7102314,-0.004560085,46.09628,1.62268
0.0249648,0.1871032,-0.35223,0.4885541,0.7077214,-0.0004751263,-0.7073316,0.0001109098,46.08749,1.634876
0.0239051,-0.3444868,-0.4056428,-0.09176014,0.7052377,-0.001418895,-0.7139875,-0.008124083,46.07779,1.632683
0.0239357,0.5870638,-0.4404946,-1.013892,0.706217,-0.003003188,-0.7137413,0.005927701,46.06725,1.608415
0.02297,1.253461,-0.3928249,-1.096229,0.7075061,-0.002172179,-0.7093071,0.03471969,46.05823,1.583234
0.0219108,0.3098243,-0.4633593,-0.8577778,0.7091673,0.0004998241,-0.7060814,0.04150819,46.04808,1.56444
0.0209112,-0.7556695,-0.5183213,-0.3525696,0.7079164,0.002016989,-0.7147892,0.02570623,46.03724,1.557067
0.0229388,-0.0553066,-0.03630994,-0.126354,0.7071577,0.005668667,-0.71367,0.02443757,46.03641,1.554168
0.0299211,-0.3008076,-0.06143524,-0.0680616,0.7086068,0.00652318,-0.7126659,0.01543707,46.03457,1.552132
0.0249307,0.6689821,-0.3451413,-0.01261259,0.7060533,0.004313535,-0.7125896,0.03211527,46.02596,1.551818
0.0299553,0.814566,-0.6656703,-0.1059289,0.7095211,0.003186341,-0.705936,0.05651584,46.00602,1.548644
0.0269293,-0.4185473,-0.6496596,0.3144414,0.7066825,0.004572712,-0.7144188,0.04524465,45.98853,1.557112
0.0239211,0.08477257,-0.2697583,0.2422837,0.7068109,0.001273064,-0.7138272,0.0472725,45.98207,1.562908
0.0249121,1.36436,-0.2413415,-0.2274619,0.703174,-0.005460806,-0.7134276,0.08126159,45.97606,1.557241
0.0239097,2.075197,-0.4475152,-1.273797,0.70594,-0.001555749,-0.7112832,0.1308789,45.96536,1.526785
0.0279268,0.8048614,-0.718495,-0.6906608,0.7106705,-0.002284204,-0.7086565,0.1533561,45.9453,1.507497
0.0309157,-0.6775337,-0.5369074,0.4008631,0.7054996,-0.002508304,-0.7152176,0.1324097,45.9287,1.51989
0.0279264,0.2136347,-0.1602917,-0.4893072,0.7037814,0.0005368311,-0.71534,0.1383757,45.92422,1.506226
0.0259592,0.5678263,-0.3500166,-1.028812,0.7108233,0.001895675,-0.712916,0.153116,45.91514,1.479519
0.0219518,0.2962309,-0.7451931,0.5833685,0.7054707,0.002981082,-0.7145671,0.1596189,45.89878,1.492324
0.0229346,0.2997522,-0.3050349,0.6237183,0.7031253,0.002586466,-0.7119017,0.1664935,45.89178,1.506629
0.0199113,-0.07531177,-0.1206227,0.238563,0.7076385,0.001995399,-0.7117283,0.164994,45.88938,1.511379
0.0229414,-0.1208005,-0.08770341,0.4261391,0.7042499,0.001628687,-0.7139785,0.1622227,45.88737,1.521156
0.024936,0.07265718,-0.06517831,0.06753352,0.7069321,0.0007836595,-0.7135839,0.1640344,45.88575,1.52284
0.0239024,0.3078897,-0.4032432,0.229846,0.7068644,-0.0005302159,-0.7180066,0.1713937,45.87611,1.528334
0.0219421,1.347434,-0.8193178,0.5122771,0.7014707,-0.002406649,-0.7148982,0.2009593,45.85813,1.539574
0.0239377,0.7209591,-0.7273121,-0.3103471,0.7047938,-0.002324274,-0.7066445,0.2182174,45.84072,1.532145
0.0229482,-0.6425754,-0.5427518,-0.3968227,0.7056649,-0.0007683337,-0.7197389,0.2034714,45.82826,1.523039
0.0219068,0.5223662,-0.09544185,-0.3228276,0.7037976,-0.002145592,-0.7158487,0.2149148,45.82617,1.515967
0.0209458,0.7327147,0.03305913,-0.4195072,0.7076185,-0.003523506,-0.7079667,0.2302621,45.82687,1.50718
0.0219729,-0.5378983,-0.3470301,0.09180676,0.7059901,-0.003850617,-0.7149757,0.2184429,45.81924,1.509197
0.0219097,0.1296918,-0.674243,0.1279715,0.7015184,-5.273614E-05,-0.7200296,0.2212844,45.80447,1.512001
0.0269279,1.615724,-0.6382323,-1.218972,0.7037551,-0.000702803,-0.7125297,0.2647925,45.78728,1.479176
0.0229377,0.6761948,-0.6279564,-0.9887016,0.7073017,0.0001757247,-0.7137061,0.2803028,45.77288,1.456498
0.023973,0.6995164,-0.3710969,-0.3306219,0.7046231,0.001145289,-0.7144675,0.2970723,45.76398,1.448572
0.0249025,0.3688847,-0.6900021,0.09734447,0.7034003,0.002973468,-0.7148376,0.3062585,45.7468,1.450996
0.025961,0.6919909,-0.8216954,-0.4591005,0.7006377,-0.0004399987,-0.7174689,0.3242233,45.72547,1.439077
0.0239016,1.070044,-0.6693233,-1.160302,0.7032908,-0.0004460635,-0.71474,0.349799,45.70947,1.411344
0.0229647,0.3059677,-0.7766005,-0.511472,0.7049214,-0.002247191,-0.7181646,0.3568255,45.69164,1.399598
0.0308898,1.371804,-0.4079494,-0.4479311,0.7002702,-0.003746745,-0.7161478,0.3992002,45.67904,1.385762
0.0329156,0.5222199,-0.2531785,-0.9987597,0.7047381,-0.004242795,-0.7119292,0.4163894,45.6707,1.352887
0.0279249,-0.171644,-0.1743416,-0.4622006,0.7025775,5.127955E-05,-0.7165838,0.4115963,45.66583,1.33998
0.0289452,0.151805,-0.005883544,-0.494152,0.7026823,0.001265218,-0.715471,0.4159903,45.66566,1.325677
0.0249466,-0.02025522,-0.0635187,-0.4822297,0.7048891,5.834177E-05,-0.7160653,0.415485,45.66408,1.313647
0.0219037,-0.2226369,-0.0322503,0.1469263,0.7027959,0.0006488143,-0.7144932,0.4106084,45.66337,1.316865
0.0199385,-0.5078852,-0.008355186,0.1863571,0.701251,0.001400444,-0.7184293,0.4004819,45.6632,1.320581
0.02294,0.2316067,-0.1110349,-0.2833043,0.7040707,0.001421984,-0.7197432,0.405795,45.66066,1.314082
0.0229738,1.192048,-0.4681918,0.2571295,0.7043064,-0.001274112,-0.7180429,0.4331809,45.6499,1.319989
0.0269595,1.027508,-0.8226141,-0.05394763,0.6997614,-0.003272094,-0.7144346,0.460882,45.62772,1.318534
0.0249331,0.4505552,-0.7706374,-0.6925575,0.7027132,-0.000674081,-0.7175678,0.4721157,45.60851,1.301267
0.0229303,0.5553019,-0.3844634,-0.4527934,0.7038071,-0.0017728,-0.7168266,0.484849,45.59969,1.290884
0.0249106,0.5592703,-0.2858742,0.2374229,0.7006562,-0.002998707,-0.7182218,0.4987807,45.59257,1.296799
0.0219702,0.7050413,-0.2537701,0.1884543,0.6997868,-0.003501485,-0.7166423,0.5142706,45.58699,1.300939
0.0239062,0.6410401,-0.1693156,-0.2719198,0.7017511,-0.002995447,-0.7179633,0.5295954,45.58294,1.294438
0.023935,0.660887,-0.2504172,-0.4503659,0.702563,-0.001793004,-0.7146355,0.5454138,45.57695,1.283659
0.0239634,-0.200753,-0.3690577,0.03711301,0.7035612,-0.001285577,-0.7168263,0.540603,45.56811,1.284548
0.0318877,-0.4368523,0.1135058,0.604211,0.7013817,-0.0007964065,-0.7184429,0.5266728,45.57173,1.303815
0.0249666,-0.2352155,0.1728819,0.4815077,0.6986209,-0.002617946,-0.7217987,0.5208003,45.57604,1.315837
0.0239024,0.7851104,0.03980324,-0.4451709,0.7001795,-0.001036164,-0.7199301,0.5395663,45.57699,1.305196
0.0229736,1.278621,-0.1284559,-0.7890029,0.7035435,-0.00264237,-0.714752,0.5689409,45.57404,1.28707
0.0239485,-0.4109028,-0.1254778,-0.0526696,0.7041879,-0.002129198,-0.7180502,0.5591004,45.57103,1.285808
0.023889,-0.6335397,0.1718756,0.5138385,0.6998177,-0.002381468,-0.7198212,0.5439658,45.57514,1.298084
0.0209789,-0.03216184,0.5010633,-0.03990038,0.7012579,-0.003367957,-0.7173589,0.543291,45.58565,1.297246
0.0219378,-0.02037282,0.6180736,-0.2653486,0.7019635,-0.002646166,-0.7152616,0.5428441,45.59921,1.291425
0.0259,-0.6019384,0.5996319,-0.3471701,0.7007478,-0.001547993,-0.7160043,0.5272539,45.61474,1.282434
0.0269257,-1.383786,0.9570606,-0.6245724,0.7046553,-0.0007931897,-0.716687,0.4899945,45.64051,1.265617
0.0239722,-1.595139,1.064855,0.3396419,0.7042078,-0.001994819,-0.7198877,0.4517556,45.66603,1.273759
0.0258978,-0.3532225,0.7548202,0.5734516,0.6995552,-0.0008029314,-0.7187104,0.4426079,45.68558,1.28861
0.0249344,0.1384811,0.7556327,-0.5685027,0.7009441,0.0001375796,-0.7123129,0.4460608,45.70442,1.274434
0.0259271,-0.9667365,1.002142,-1.31866,0.7049894,0.002370977,-0.714945,0.4209962,45.7304,1.240245
0.0289565,-1.486427,1.48927,-0.3395677,0.7101281,-0.000410662,-0.7153919,0.3779545,45.77353,1.230413
0.0249279,-1.355831,1.303703,1.555251,0.7056364,-0.0007855548,-0.7171652,0.3441564,45.80603,1.269182
0.0269018,-0.3217867,0.5455307,0.8618597,0.6981959,-0.001798659,-0.7167726,0.3354998,45.8207,1.292367
0.0269639,0.9256656,-0.2227448,-1.397006,0.7036622,0.0005379273,-0.7155866,0.3604594,45.8147,1.254699
0.0268906,1.281525,-0.6173164,-1.86023,0.7078897,0.0001653275,-0.7117379,0.3949203,45.7981,1.204676
0.0299211,-0.1870937,-0.1458684,-1.075911,0.7031347,-0.0001000585,-0.7117975,0.3893223,45.79373,1.172483
0.0239754,-0.2964106,0.03627974,-1.80194,0.7011285,0.0001758458,-0.717949,0.3822157,45.7946,1.129281
0.0248945,0.6291696,-0.2285341,-2.756171,0.7065632,0.003227675,-0.7141844,0.3978786,45.78891,1.060668
0.0239362,0.4245511,-0.2629669,-1.867021,0.7071688,0.004941122,-0.7144104,0.4080407,45.78262,1.015978
0.0239594,0.06372578,0.03277064,-0.8209335,0.7047392,0.003956896,-0.7149371,0.4095675,45.78341,0.9963092
0.0289263,0.230399,0.1587657,-0.1667238,0.7056052,0.001887849,-0.7153085,0.4162321,45.788,0.9914864
0.0239387,0.04435642,0.4546545,0.1291425,0.7036142,0.003323568,-0.7122585,0.417294,45.79888,0.9945779
0.0249064,-0.5819196,0.6452098,0.01200786,0.7051233,0.001766875,-0.7158055,0.4028004,45.81495,0.994877
0.0239018,-0.2281827,0.180466,0.002209763,0.7019657,0.0005368674,-0.7165879,0.3973465,45.81927,0.9949299
0.0229425,0.5716505,-0.2785666,-0.5395181,0.7032644,2.748426E-05,-0.7125306,0.4104615,45.81288,0.9825519
0.0229368,0.4866614,-0.6977968,-0.7492604,0.7038994,0.001513996,-0.7153319,0.421624,45.79687,0.9653663
0.0219769,0.6788445,-0.4994252,-1.009393,0.7041216,0.004194229,-0.7143301,0.4365429,45.7859,0.9431829
0.0229018,0.561141,-0.08495648,-0.6534203,0.7060574,0.004315995,-0.7129573,0.449394,45.78395,0.9282184
0.0259341,-0.1926475,0.05031693,0.266211,0.7058193,0.004563162,-0.7135714,0.4443979,45.78526,0.9351224
0.0259308,-0.08179321,-0.1581737,0.9398973,0.7034051,0.005179062,-0.7160481,0.4422769,45.78115,0.9594947
0.0279603,0.4533699,-0.3298343,0.3790483,0.7003484,0.00442643,-0.7151098,0.4549533,45.77193,0.970093
0.0248997,0.7558223,-0.4275846,-0.6411228,0.7037864,0.003354454,-0.7167915,0.473773,45.76128,0.9541292
0.0308833,0.5165638,-0.2017851,-0.2414246,0.7073949,0.002606338,-0.7119722,0.4897262,45.75505,0.9466732
0.0309138,-0.8529047,0.2597509,1.019513,0.7039244,0.001039627,-0.7174186,0.4633597,45.76308,0.9781902
0.0279593,-0.2065601,0.4076684,0.62502,0.7019524,-0.0002054377,-0.7151223,0.4575844,45.77448,0.9956653
0.0348752,0.229186,-0.03211565,0.0015521,0.7052467,5.50542E-05,-0.7153255,0.4655773,45.77336,0.9957194
0.0299455,0.2983995,-0.488114,0.1962044,0.7053387,0.003463928,-0.71383,0.4745131,45.75874,1.001595
0.0289271,0.461917,-0.2930396,0.5764605,0.7057339,0.003605678,-0.7165208,0.487875,45.75026,1.01827
0.0259298,0.4785196,-0.1973901,0.8099604,0.7029,0.002351883,-0.7134996,0.5002829,45.74514,1.039272
0.0269515,0.1020713,-0.5526853,0.2776971,0.7006358,0.001394442,-0.7179465,0.5030339,45.73025,1.046757
0.0239108,0.6540244,-0.5550829,-0.2453333,0.7047722,0.001162234,-0.7169172,0.5186721,45.71698,1.04089
