DT,Velocity X,Velocity Y,Velocity Z,Acceleration X,Acceleration Y,Acceleration Z,Angle X,Angle Y,Angle Z
0.026921,0.9989502,0.03079804,0.1495883,-0.04355925,0.04079104,-1.001062,0.2268287,-0.2728828,0.439109
0.0269392,0.4810983,0.03587142,0.5174803,-0.04601039,0.03905959,-0.9993875,0.2397891,-0.2719165,0.4530495
0.0268923,-0.4709305,0.03556374,0.02190875,-0.04631615,0.03799288,-1.004424,0.2271247,-0.2709601,0.4536387
0.0279253,0.6843461,0.04049044,-0.4483391,-0.04486792,0.0387245,-1.003298,0.2462352,-0.2698294,0.4411187
0.0259659,0.5411489,0.06960785,0.009446311,-0.04588943,0.03930429,-0.9993843,0.2602867,-0.268022,0.441364
0.0259231,-0.451351,0.196078,0.09205689,-0.04680586,0.04117128,-1.005389,0.2485862,-0.262939,0.4437504
0.0269277,0.4144816,0.3434599,-0.2780313,-0.04399903,0.04069549,-1.005358,0.2597473,-0.2536905,0.4362636
0.0239691,0.8716673,0.2035863,-0.2279594,-0.04554845,0.0421055,-0.9981351,0.2806403,-0.2488107,0.4307996
0.0259321,-0.7948499,0.474433,-0.5044177,-0.04592265,0.04417919,-0.9981253,0.2600282,-0.2365076,0.417719
0.0239341,-1.505761,0.8983065,-0.6707441,-0.04147689,0.0490049,-1.00478,0.2239892,-0.2150075,0.4016654
0.0339099,-0.7528725,0.628153,0.04022,-0.04236458,0.05069378,-1.002327,0.1984594,-0.1937069,0.4030292
0.0359041,-0.4694382,0.5478011,0.2009178,-0.04512573,0.04556794,-1.00448,0.1816046,-0.1740386,0.410243
0.0319486,0.1862206,0.5921053,-0.6509904,-0.04391817,0.04177259,-1.00204,0.1875541,-0.1551217,0.3894448
0.0299202,0.2784488,0.7207169,-0.4000561,-0.03937037,0.03936676,-1.00433,0.1958853,-0.1335577,0.377475
0.0278895,1.014852,0.7176439,0.8676597,-0.0418351,0.03762711,-1.00143,0.2241891,-0.1135429,0.4016736
0.0288844,0.6141781,0.6468527,0.4893328,-0.04395749,0.03868949,-0.9974039,0.2419292,-0.09485898,0.4158077
0.0309149,-0.4189477,0.6975368,-0.2952038,-0.04071737,0.03972455,-1.003976,0.2289775,-0.0732947,0.4066815
0.0289238,0.1352514,0.9303728,-0.01432392,-0.04170471,0.03959073,-1.002886,0.2328895,-0.04638478,0.4062672
0.0289233,0.2032896,1.383801,-0.1416296,-0.04001881,0.04288952,-1.002107,0.2387693,-0.006360684,0.4021708
0.0249667,-0.07000785,1.582691,0.1440805,-0.03661883,0.0448539,-1.00144,0.2370214,0.03315389,0.405768
0.0259302,0.122476,1.808981,0.7223991,-0.0395312,0.04497194,-1.002823,0.2401972,0.08006114,0.4245
0.0219709,-0.03090249,1.453647,0.6988112,-0.03920976,0.04653762,-0.9993757,0.2395183,0.1119991,0.4398535
0.0249201,-0.9351499,1.315607,0.5713349,-0.03747997,0.04704831,-1.001557,0.2162143,0.1447841,0.4540912
0.021948,-1.141287,1.488369,0.5725536,-0.03782239,0.04595946,-1.003285,0.1911653,0.1774509,0.4666576
0.0249205,-0.6737287,1.154029,0.3544798,-0.03756159,0.04548126,-1.004634,0.1743756,0.2062098,0.4754914
0.0249089,0.1319735,0.8330534,0.1202709,-0.03769403,0.04571913,-1.003776,0.1776629,0.2269603,0.4784873
0.0249669,0.6306787,0.6320614,-0.2114439,-0.03686979,0.04423669,-1.000589,0.193409,0.2427409,0.4732082
0.0259281,-0.1282323,0.5583557,-0.2921118,-0.03480821,0.04509556,-0.9998224,0.1900842,0.257218,0.4656343
0.0239363,-0.7347941,0.751681,0.1510314,-0.03426835,0.04366069,-1.003993,0.1724959,0.2752104,0.4692494
0.0259326,-0.2189148,0.8719123,0.6084965,-0.03498122,0.0413437,-1.004876,0.1668189,0.2978214,0.4850293
0.0239347,0.4718456,0.8139383,0.4933779,-0.03682963,0.04034497,-1.002822,0.1781124,0.3173028,0.4968381
0.0219408,0.6662871,0.7701123,-0.1177124,-0.03648822,0.04033184,-1.000611,0.1927313,0.3341996,0.4942554
0.0249266,0.6566884,0.9546208,-0.721186,-0.03216971,0.04038123,-1.005094,0.2091003,0.3579951,0.4762787
0.0239447,1.272163,0.5680072,-0.6455767,-0.03496209,0.04098812,-1.006472,0.2395618,0.3715959,0.4608206
0.0289243,2.561602,0.6525083,-1.39797,-0.03595986,0.03803341,-1.00344,0.3136544,0.3904692,0.4203853
0.0288845,2.510478,0.818324,-1.693048,-0.02930105,0.03962493,-0.9995479,0.3861683,0.4141061,0.3714824
0.0259651,1.273669,0.6591851,-0.2617942,-0.03073508,0.03975852,-1.002261,0.4192392,0.4312219,0.3646849
0.0249273,0.7149329,1.216286,0.05011722,-0.03402344,0.03901218,-1.002429,0.4370605,0.4615406,0.3659342
0.0249091,0.6241534,1.514174,-0.3873847,-0.03084712,0.04135482,-1.003722,0.4526076,0.4992573,0.3562848
0.0229417,1.209379,1.176033,0.1366592,-0.03083131,0.04148674,-1.005192,0.4803528,0.5262375,0.35942
0.0229405,1.617179,0.7963433,0.01906601,-0.03110948,0.03816086,-1.000928,0.5174517,0.5445061,0.3598574
0.0249007,1.045976,0.664293,-0.1918773,-0.0275607,0.03818402,-1.001988,0.5434972,0.5610474,0.3550795
0.0249662,0.4171028,0.7651088,0.6052946,-0.03070373,0.03365875,-1.002916,0.5539107,0.5801493,0.3701914
0.0239029,0.3733993,0.6566143,0.3433498,-0.031305,0.03255979,-1.003298,0.562836,0.5958443,0.3783984
0.0229372,0.8116275,0.7551329,-0.07178073,-0.02948013,0.03501279,-1.00375,0.5814524,0.6131649,0.376752
0.0229728,1.128741,0.9055737,-0.03735312,-0.03044837,0.03317727,-1.003774,0.6073828,0.6339685,0.3758939
0.0249309,0.99919,0.6035695,-0.185139,-0.02890258,0.0352408,-1.000922,0.6322935,0.649016,0.3712782
0.0229084,0.2912549,0.7096579,-0.07208539,-0.02706131,0.03733658,-1.002723,0.6389657,0.6652731,0.3696268
0.0219398,0.1029473,1.59271,0.4690751,-0.02900006,0.03660114,-1.00361,0.6412243,0.7002169,0.3799182
0.0209803,0.5676062,1.876825,0.5464681,-0.0286395,0.03757858,-1.003476,0.6531329,0.7395933,0.3913833
0.0259322,0.6690994,0.9926596,0.1094476,-0.02720348,0.03830282,-1.001248,0.6704841,0.7653351,0.3942215
0.0249302,-0.08637683,1.053508,-0.1142702,-0.02750378,0.03912429,-0.9964651,0.6683307,0.7915993,0.3913727
0.022972,-0.8100845,2.25169,-0.3135371,-0.02506381,0.03700612,-1.006747,0.6497214,0.8433251,0.3841702
0.0229377,0.3379113,2.102734,-0.3717123,-0.02186169,0.03361276,-1.008324,0.6574723,0.891557,0.3756439
0.0219091,1.36346,1.074194,0.002241183,-0.02506962,0.03100628,-1.004091,0.6873445,0.9150916,0.3756931
0.0239015,1.331333,0.7999924,0.1128225,-0.02423241,0.03002117,-1.002249,0.7191653,0.9342126,0.3783897
0.0279222,0.6109586,0.8296898,0.1372976,-0.02385945,0.02757962,-1.002016,0.7362247,0.9573794,0.3822233
0.0229755,0.202223,0.9210913,0.1952976,-0.02251669,0.03064574,-1.003205,0.7408708,0.9785419,0.3867104
0.0268928,0.3877694,2.585777,0.5025881,-0.020321,0.03457186,-1.004622,0.751299,1.048081,0.4002264
0.0239673,0.6684356,2.762116,0.9171538,-0.02198153,0.04039334,-0.9999439,0.7673196,1.114281,0.4222081
0.024939,-0.2483847,1.720363,0.4271759,-0.02203865,0.03578173,-1.004144,0.7611251,1.157185,0.4328615
0.0219406,-0.5693551,1.453609,-0.2456499,-0.01909101,0.03433889,-1.005466,0.7486331,1.189078,0.4274718
0.0219055,0.01540402,2.156777,-0.3776222,-0.01801781,0.03261584,-1.002646,0.7489706,1.236324,0.4191998
0.0309055,-0.3654474,2.743123,0.4832223,-0.01632691,0.03298067,-1.001274,0.7376763,1.321101,0.434134
0.0289594,-1.034299,3.934164,0.4848298,-0.014666,0.03315575,-1.008117,0.7077236,1.435032,0.4481744
0.0259288,0.4573101,3.75176,0.6396292,-0.0105414,0.03316114,-1.006106,0.7195811,1.532311,0.4647592
0.0259209,1.34953,1.327376,1.285695,-0.01374674,0.03092335,-1.002238,0.7545621,1.566718,0.4980855
0.0298952,-0.01799444,2.104212,0.5995419,-0.01449595,0.0318885,-1.001015,0.7540242,1.629623,0.516009
0.0289569,-0.5994435,5.416265,0.187443,-0.00551704,0.03625753,-1.009333,0.7366662,1.786462,0.5214368
0.0258955,-0.3600923,8.569491,1.326001,-0.003753252,0.03426817,-1.002706,0.7273414,2.008373,0.5557742
0.0259621,-0.161221,8.012785,1.715591,-0.006079275,0.0310707,-1.000795,0.7231558,2.216402,0.6003146
0.0259006,-1.019608,10.05712,0.1884829,0.001513825,0.03393847,-1.004605,0.6967474,2.476887,0.6051964
0.0219758,-0.7677649,10.02631,-0.1011202,0.008191441,0.03762171,-1.00315,0.6798751,2.697223,0.6029742
0.0239011,-0.2253826,5.288409,0.7326509,0.004653685,0.03417874,-1.001869,0.6744882,2.823622,0.6204854
0.0219419,0.2121865,1.842423,0.3837977,0.008197012,0.03285249,-1.001957,0.679144,2.864048,0.6289066
0.0289223,-0.3914845,2.476,0.2544854,0.01065721,0.03605789,-1.00497,0.6678214,2.93566,0.6362669
0.0288893,-0.5887352,9.847683,0.3727899,0.01432489,0.03718112,-1.006143,0.6508133,3.220153,0.6470366
0.0249048,-0.01210205,10.33801,0.1102044,0.01881579,0.03571993,-1.003647,0.6505119,3.477619,0.6497812
0.0229658,-0.434258,7.172508,0.4998834,0.02249548,0.03371796,-0.9938099,0.6405388,3.642341,0.6612614
0.0249323,-1.449972,5.365736,0.5637863,0.02033652,0.03196748,-1.007454,0.6043876,3.776121,0.6753179
0.021963,-0.4973098,7.059733,-0.583857,0.0253575,0.0328591,-1.009593,0.5934652,3.931174,0.6624947
0.024922,0.3461978,8.284457,-0.8091162,0.03417065,0.03308969,-1.001517,0.6020932,4.13764,0.6423299
0.0239272,0.3198278,5.527009,0.003834378,0.03549555,0.03247381,-0.9997891,0.6097457,4.269886,0.6424216
0.0259026,0.0520917,3.733292,0.477814,0.03531978,0.03177962,-1.00568,0.6110951,4.366588,0.6547982
0.027927,1.365436,4.660337,-0.4794194,0.03628784,0.0370415,-1.006857,0.6492276,4.496737,0.6414095
0.0229741,2.324744,4.827786,-0.987849,0.04095395,0.03810977,-0.9990709,0.7026365,4.607651,0.6187145
0.0229029,1.342524,3.567435,-0.5458214,0.0424039,0.03774105,-0.9977074,0.7333843,4.689356,0.6062136
0.0209791,-0.6907042,4.755836,-0.2402201,0.04403519,0.03851011,-1.002095,0.7188939,4.789129,0.6011741
0.024933,-1.188882,7.579937,-0.04238549,0.04592651,0.03696489,-1.007108,0.6892515,4.97812,0.6001173
0.0219396,0.03965998,7.514409,0.102701,0.04858321,0.03537017,-1.004145,0.6901216,5.142983,0.6023705
0.0239276,1.156846,4.407526,-0.1539488,0.04904531,0.03364358,-1.00121,0.7178022,5.248445,0.5986869
0.0229206,0.4969857,3.59183,-0.2913401,0.05455183,0.03306754,-1.002617,0.7291934,5.330771,0.5920092
0.0269565,-0.1537245,5.817019,-0.06241397,0.05323308,0.03283051,-1.004596,0.7250495,5.487578,0.5903267
0.023936,1.277297,3.761463,-0.213108,0.05638759,0.03112164,-1.002486,0.7556229,5.577612,0.5852258
0.0258956,2.18683,0.828537,-0.1570172,0.05633789,0.0279099,-0.9968702,0.8122521,5.599068,0.5811597
0.029955,-0.7947731,4.262926,-0.223573,0.06013237,0.03033345,-1.009923,0.7884447,5.726764,0.5744626
0.0229029,-0.1776721,7.240639,-0.2649895,0.06065104,0.03064828,-1.001824,0.7843755,5.892595,0.5683936
0.0249341,1.249592,5.374573,-0.139378,0.06358331,0.03201076,-1.00276,0.8155329,6.026606,0.5649183
0.0219775,1.367053,4.716501,-0.02529439,0.06455103,0.03262222,-1.002254,0.8455774,6.130262,0.5643624
0.0238994,1.099857,4.331238,-0.04144465,0.06448796,0.03307363,-0.9967353,0.8718632,6.233777,0.5633719
0.0259302,0.05523166,5.108516,-0.8047285,0.06699215,0.03312388,-1.002588,0.8732954,6.366241,0.5425051
0.0249632,0.1015826,6.160575,-0.6883834,0.07587143,0.03755512,-1.001959,0.8758312,6.520029,0.5253209
0.026929,0.1318265,6.215991,0.405666,0.07333197,0.03253933,-1.002147,0.8793812,6.687419,0.536245
0.0249324,0.6051193,5.708291,-0.3026503,0.0734666,0.03107905,-1.002769,0.8944682,6.829741,0.5286993
0.021964,1.110203,5.972691,-1.47406,0.07809982,0.02963071,-1.002109,0.9188527,6.960925,0.496323
0.0239414,0.8562381,5.65858,-1.196999,0.08500262,0.02951013,-0.9976134,0.9393523,7.096399,0.4676652
0.022906,0.3432585,3.645876,-0.2227621,0.08574206,0.02792721,-0.9977379,0.947215,7.179912,0.4625626
0.0219758,0.09029461,0.92769,0.4768687,0.08574156,0.02804929,-0.9977371,0.9491993,7.200298,0.4730422
0.0239299,-0.6714085,2.552533,0.6342349,0.07890826,0.02747758,-1.008243,0.9331325,7.26138,0.4882194
0.0269042,0.6942011,7.777746,-0.4785753,0.0909077,0.02858834,-1.001838,0.9518095,7.470634,0.4753437
0.0289466,2.520566,2.363882,-0.02473854,0.09193337,0.0268366,-0.9947281,1.024771,7.539061,0.4746276
0.0239454,0.7294832,0.6160924,0.5726876,0.09097245,0.02622923,-0.9958473,1.042239,7.553813,0.4883409
0.0249002,-0.8626161,1.976153,0.446624,0.08726319,0.02576587,-1.002147,1.02076,7.60302,0.4994619
0.0239662,-0.7844345,9.107224,-0.8788512,0.09520356,0.02580945,-1.003276,1.00196,7.821285,0.4783992
0.0239055,0.448065,9.067214,-0.8119879,0.1019706,0.02641424,-0.9977959,1.012671,8.038041,0.4589882
0.0289498,0.8308282,2.080154,0.2499352,0.1009721,0.02872116,-0.9965664,1.036723,8.098261,0.4662238
0.0328879,-0.006019611,0.3892376,0.3325011,0.09961338,0.03029562,-0.9955914,1.036525,8.111062,0.477159
0.0309532,-1.391194,1.890099,0.2673216,0.1021715,0.03588527,-1.00827,0.9934633,8.169567,0.4854335
0.0268889,-1.021936,7.358613,0.6609238,0.1071765,0.03485853,-0.9973065,0.9659846,8.367433,0.503205
0.0239739,-0.8818026,4.031041,0.8879363,0.1044315,0.03505381,-0.9918226,0.9448443,8.464072,0.5244923
0.0249301,-1.4799,2.198073,0.01080063,0.1024507,0.03510032,-1.000182,0.9079502,8.51887,0.5247616
0.021942,-1.008785,4.591429,-0.7682193,0.1105694,0.03162962,-1.005132,0.8858154,8.619616,0.5079053
0.0239287,0.6081393,6.067167,-0.4957806,0.1133184,0.02487786,-0.9976684,0.9003674,8.764795,0.4960419
0.0219429,0.5709386,6.695961,-0.3499005,0.1138869,0.02497806,-0.9939834,0.9128955,8.911724,0.4883641
0.0269,-0.3701688,3.744985,0.2218414,0.1171882,0.0248756,-0.9946795,0.9029379,9.012465,0.4943316
0.0279265,-0.2233523,0.2007649,0.1455744,0.1146718,0.02293307,-0.998033,0.8967005,9.018071,0.498397
0.0259647,0.06572773,0.9107554,-0.2258243,0.1201667,0.02761209,-1.000263,0.8984071,9.041718,0.4925336
0.0239709,0.537087,7.565238,-0.04640583,0.1200078,0.02832351,-0.9971954,0.9112816,9.223064,0.4914212
0.024926,-0.1276979,8.996819,-0.3607016,0.1236653,0.03083595,-0.9869596,0.9080986,9.447319,0.4824303
0.0219504,-1.278696,5.982711,-0.3530913,0.123847,0.03527802,-0.9939137,0.8800307,9.578642,0.4746798
0.0239269,-0.1777804,3.890981,-0.701877,0.1288096,0.03828787,-1.002535,0.8757769,9.671741,0.4578861
0.0209525,0.9956867,6.271341,-1.217215,0.1298572,0.03752832,-0.9977475,0.896639,9.803142,0.4323824
0.0219368,0.614503,9.704724,-1.46854,0.1342609,0.03674876,-0.9876479,0.9101193,10.01603,0.4001673
0.026929,-0.980105,7.300826,-0.6095021,0.1394434,0.03154607,-0.9911755,0.8837261,10.21264,0.3837541
0.0288881,-1.457954,4.480731,0.1030416,0.1434696,0.03009664,-0.9907687,0.8416085,10.34208,0.3867308
0.0289581,-0.9901767,4.48459,0.1510604,0.1411465,0.02562793,-0.9996534,0.8129349,10.47194,0.3911052
0.0219439,1.106092,2.418123,-0.4047664,0.1448969,0.02599382,-0.9970312,0.8372068,10.525,0.382223
0.0239389,1.97973,0.443352,-0.1047667,0.1472434,0.02668305,-0.9889077,0.8845994,10.53562,0.379715
0.0228985,0.6097419,-0.08248367,0.4523373,0.1416493,0.02887017,-0.9911671,0.8985615,10.53373,0.3900729
0.0219691,-0.3157277,0.1884522,-0.2487963,0.1430203,0.03134148,-0.9946881,0.8916253,10.53787,0.384607
0.0209429,-0.4104763,2.305441,-0.1326802,0.1441231,0.0334299,-0.995886,0.8830287,10.58615,0.3818283
0.0279499,0.7231735,7.472913,0.0205915,0.1433716,0.0329252,-0.9939374,0.9032414,10.79502,0.3824039
0.0259067,0.9424202,9.449319,-1.663483,0.1507532,0.03402512,-0.9890594,0.9276564,11.03982,0.3393085
0.0239714,-0.02729566,8.019686,-1.66784,0.1616416,0.03475574,-0.9813221,0.9270021,11.23206,0.2993281
0.0239363,-2.37041,1.892378,1.020144,0.1590409,0.03259065,-0.9879879,0.8702632,11.27736,0.3237465
0.0219057,-3.102322,-0.1058969,2.176055,0.1528391,0.03032159,-0.9998465,0.8023047,11.27504,0.3714145
0.0229384,0.5103507,3.79177,0.4232804,0.1522874,0.02876303,-1.004522,0.8140113,11.36202,0.3811239
0.0209794,1.757221,6.029089,-0.8688674,0.1616087,0.02954686,-0.9874873,0.8508767,11.4885,0.3628956
0.0239274,0.9575849,1.852254,-0.3852589,0.1614815,0.0274628,-0.9862775,0.8737893,11.53282,0.3536774
0.0249056,-0.6446018,-0.5426843,0.1778938,0.164756,0.0293021,-0.9852443,0.857735,11.51931,0.3581079
0.0239346,-1.616912,-0.7594099,0.8814667,0.1620605,0.03119126,-0.9958057,0.8190349,11.50113,0.3792055
0.0249343,-0.01176383,-0.1828819,0.6919309,0.1560909,0.03239192,-0.9968507,0.8187416,11.49657,0.3964583
0.0229714,1.193675,0.7788031,-0.5230057,0.1608823,0.03431938,-0.9896696,0.846162,11.51446,0.3844441
0.0229065,0.6552797,0.5092229,-0.4446412,0.1643723,0.03406231,-0.9853387,0.8611721,11.52612,0.3742589
0.0219392,-0.805744,-0.3769466,0.4804389,0.162541,0.0349095,-0.9854777,0.8434948,11.51785,0.3847994
0.0259324,-2.238566,-0.8660616,0.6673378,0.159595,0.03471324,-0.9947082,0.7854434,11.49539,0.402105
0.022939,-1.074413,-0.2798158,0.2158354,0.1609962,0.03340918,-0.9996033,0.7607974,11.48898,0.4070561
0.0269277,1.660044,0.6599802,0.01583837,0.1618574,0.03175354,-0.9886948,0.8054985,11.50675,0.4074826
0.0279247,0.7832473,0.001066671,0.05821724,0.1629104,0.03063023,-0.984277,0.8273705,11.50678,0.4091083
0.0219416,-1.308588,-0.4509621,0.2282302,0.1601474,0.0300311,-0.9878695,0.798658,11.49688,0.414116
0.0229376,-1.754925,-0.1768498,0.1484147,0.1607124,0.03081412,-0.9950893,0.7584042,11.49283,0.4175203
0.0249686,0.04501125,-0.2182117,0.3822715,0.1626271,0.0331259,-0.9925984,0.759528,11.48738,0.4270651
0.0239366,0.6456888,0.1072354,0.7931497,0.1608755,0.03296914,-0.9885758,0.7749836,11.48995,0.4460504
0.0219403,-0.09408578,0.02779588,0.3780668,0.1575532,0.0322023,-0.9856797,0.7729194,11.49055,0.4543453
0.0209091,-0.9766752,-0.2412477,-0.2809347,0.1604225,0.03311037,-0.9917673,0.752498,11.48551,0.4484712
0.0219788,-0.5393105,-0.4704591,-0.3218457,0.1627592,0.03398919,-0.9938166,0.7406446,11.47517,0.4413974
0.0229364,0.4780852,-0.3558884,0.3102197,0.1612385,0.03333619,-0.9884463,0.7516101,11.46701,0.4485128
0.0258967,-0.2092991,-0.200088,0.4757809,0.159171,0.03259611,-0.9887217,0.74619,11.46183,0.4608339
0.0279248,-0.269585,-0.2234758,-0.2257798,0.1610319,0.03421424,-0.9921201,0.7386618,11.45559,0.454529
0.0279595,0.3781543,-0.4133642,-0.1728857,0.1601598,0.03101756,-0.9893335,0.7492349,11.44403,0.4496953
0.0259317,-0.5057753,-0.4649799,0.1765918,0.1595634,0.03175714,-0.9908065,0.7361193,11.43197,0.4542746
0.0259308,-0.7235775,-0.2964587,0.3882951,0.1589855,0.03397642,-0.9944755,0.7173563,11.42428,0.4643434
0.024927,0.5330828,-0.0117099,0.5349066,0.1599201,0.03334414,-0.9905461,0.7306445,11.42399,0.477677
0.0219403,0.3905661,-0.0893138,0.6546601,0.1578,0.03281706,-0.9861627,0.7392136,11.42203,0.4920405
0.0269281,-1.131827,-0.03116038,-0.1363748,0.1606775,0.03507617,-0.9934667,0.7087356,11.42119,0.4883682
0.0328936,0.07275584,0.1211298,-0.004575464,0.1620182,0.03459221,-0.9932086,0.7111288,11.42518,0.4882177
0.0249706,0.638749,0.2556891,0.4507453,0.158084,0.03504506,-0.9905567,0.7270788,11.43156,0.499473
0.0229356,0.5027978,0.1309387,-0.1023344,0.1596634,0.03382481,-0.9895653,0.7386107,11.43457,0.4971259
0.0239022,0.09438921,0.2138194,-0.2929259,0.1601402,0.03418747,-0.9886989,0.7408668,11.43968,0.4901243
0.0219638,-0.5967271,0.2327583,0.1000022,0.1615135,0.03372319,-0.9913821,0.7277604,11.44479,0.4923208
0.0229021,-0.6289927,0.1826402,0.4208003,0.1596803,0.03469165,-0.9913977,0.7133552,11.44897,0.501958
0.0229633,-0.368588,0.2562509,0.2340896,0.160171,0.03432841,-0.9915168,0.7048912,11.45486,0.5073335
0.0269042,-0.3380587,0.6905422,0.1589207,0.1624882,0.03360465,-0.9912485,0.695796,11.47343,0.5116091
0.0299557,-0.1326181,0.4865501,0.3969529,0.1585888,0.03285477,-0.9913011,0.6918234,11.48801,0.5235001
0.0249336,0.1836294,0.09526783,-0.3294658,0.1602862,0.03261167,-0.9903015,0.6964019,11.49039,0.5152853
0.0269291,-0.1636236,0.1009334,-0.4124553,0.1642863,0.03494009,-0.9888884,0.6919957,11.4931,0.5041783
0.0248995,-0.6816581,0.1860497,0.3994571,0.1614002,0.03360549,-0.9921198,0.6750227,11.49774,0.5141246
0.0219745,-0.2212103,0.1062834,0.3932765,0.1604412,0.03250982,-0.9932422,0.6701617,11.50007,0.5227666
0.0239444,0.5736696,0.1961585,-0.01906787,0.1611232,0.0337068,-0.9891806,0.6838979,11.50477,0.5223101
0.0229359,0.3665754,0.1857086,0.07237469,0.1613532,0.03345471,-0.9878312,0.6923056,11.50903,0.5239701
0.0229295,-0.4427278,-0.02983342,0.1589933,0.1616151,0.03371143,-0.9895423,0.6821541,11.50834,0.5276157
0.0259058,-0.2883949,0.02307485,-0.04718829,0.1615167,0.03494889,-0.9921091,0.674683,11.50894,0.5263933
0.0249596,0.09838626,0.1446722,-0.0732896,0.1635842,0.03434283,-0.9913526,0.6771387,11.51255,0.524564
0.0269015,0.1882777,0.2524571,0.5690598,0.1622407,0.03519221,-0.9914857,0.6822037,11.51934,0.5398726
0.0229748,-0.00324357,0.1655846,0.5298293,0.1596362,0.0338084,-0.9871141,0.6821291,11.52315,0.5520453
0.0259284,-1.127184,0.1222715,0.1456072,0.1621098,0.03469679,-0.9905101,0.6529031,11.52632,0.5558206
0.0239311,-0.8886747,0.0768702,0.3911598,0.1607051,0.03533755,-0.9960387,0.6316361,11.52816,0.5651816
0.0229372,0.8507994,0.1745375,0.4024837,0.1607873,0.03506934,-0.9923623,0.6511511,11.53216,0.5744134
0.0248992,1.299995,0.1822224,-0.03058615,0.1607308,0.03454577,-0.9870958,0.68352,11.5367,0.5736519
0.0239504,0.05290382,0.1552032,-0.2886807,0.1616133,0.03383269,-0.9894189,0.684787,11.54042,0.5667378
0.0239363,-0.4752533,-0.035805,-0.3172712,0.1624724,0.03347273,-0.9897786,0.6734113,11.53956,0.5591435
0.0219442,-0.3214885,-0.01307123,-0.06318638,0.1625116,0.03288449,-0.9930918,0.6663564,11.53927,0.557757
0.0229024,0.3499697,0.03247717,0.1670516,0.1622501,0.03250568,-0.9913815,0.6743716,11.54002,0.5615829
0.0229729,0.7011136,0.2370854,0.09209716,0.1589483,0.03138409,-0.9902037,0.6904782,11.54546,0.5636986
0.0229041,0.5844753,0.3514487,-0.5643666,0.1624739,0.0331065,-0.9897811,0.7038651,11.55351,0.5507723
0.0219772,0.2221532,-0.08301306,-0.4124272,0.1618454,0.03370433,-0.9883137,0.7087474,11.55169,0.5417083
0.0219399,-0.5425499,-0.08028933,-0.1022031,0.1629754,0.03580914,-0.9919628,0.6968439,11.54993,0.539466
0.0239011,-0.2907937,0.2064516,0.2617599,0.1622438,0.03543882,-0.9918517,0.6898936,11.55486,0.5457223
0.0279259,0.3718324,0.5863966,0.4196057,0.1590744,0.03542549,-0.9920129,0.7002773,11.57124,0.5574402
0.0229388,0.9726186,0.5831242,-0.276633,0.162954,0.036041,-0.9901228,0.722588,11.58461,0.5510945
0.0239026,0.6251066,0.4825496,0.1737407,0.1647475,0.03614992,-0.9869132,0.7375297,11.59615,0.5552474
0.022939,-0.2810181,0.5861716,0.605652,0.1612299,0.03479948,-0.9881911,0.7310834,11.60959,0.5691404
0.0229379,-0.9920323,0.5028747,0.3799638,0.1629639,0.03629171,-0.9911016,0.7083282,11.62113,0.577856
0.0229731,-0.3639989,0.2913908,0.1845217,0.1621248,0.03299263,-0.9912571,0.6999661,11.62782,0.582095
0.0229293,0.01484892,0.1942538,-0.01734254,0.1639478,0.03152848,-0.9901418,0.7003065,11.63227,0.5816974
0.020921,0.0008983288,0.2541454,-0.1833027,0.1647979,0.03140775,-0.9897646,0.7003253,11.63759,0.5778625
0.0309179,0.2634555,0.3124457,0.3188587,0.1645641,0.03092328,-0.9905063,0.7084708,11.64725,0.5877209
0.0279588,0.2290518,0.3359821,0.5473406,0.1638164,0.03115515,-0.9891654,0.7148749,11.65664,0.6030239
0.0229403,-0.2209881,0.4662043,0.5435976,0.163938,0.03225685,-0.9895241,0.7098053,11.66734,0.6154943
0.0239254,-0.4341212,0.3769281,0.5472878,0.1627156,0.03433,-0.9900149,0.6994188,11.67636,0.6285883
0.0219517,-0.2024216,0.3092494,0.3127216,0.1628547,0.03446329,-0.9916058,0.6949753,11.68314,0.6354531
0.0279257,0.1254897,0.3843752,0.06695256,0.1658627,0.03616548,-0.988493,0.6984797,11.69388,0.6373228
0.0278941,-0.4072381,0.6090261,0.4237106,0.1666144,0.03593607,-0.9902016,0.6871201,11.71087,0.6491418
0.0319117,-0.09982773,0.5933883,0.2539679,0.1644559,0.03460228,-0.9930563,0.6839345,11.7298,0.6572464
0.03094,0.6521529,0.6204112,-0.08728823,0.1673324,0.03495205,-0.9886061,0.7041121,11.749,0.6545457
0.0249065,-0.4704683,6.658726,-0.2714152,0.1602572,0.03217776,-0.9985175,0.6923943,11.91484,0.6477857
0.0249584,-1.115974,11.68948,-0.5944755,0.1695168,0.03287505,-0.9868777,0.6645414,12.20659,0.6329485
0.0239304,-0.8852363,9.129686,-0.6011977,0.1763315,0.03448762,-0.9860482,0.6433573,12.42507,0.6185616
0.0229525,0.1214648,3.265225,-0.07556219,0.1804911,0.03390231,-0.9869822,0.6461453,12.50002,0.6168273
0.0229052,0.4124612,0.2613764,0.4748023,0.1785136,0.03400009,-0.9846767,0.6555928,12.506,0.6277028
0.0219405,-0.2134411,0.5887335,0.4765974,0.1762078,0.03235638,-0.9961157,0.6509098,12.51892,0.6381596
0.023937,0.0480415,7.421511,-0.6205632,0.1841609,0.0355163,-0.9885199,0.6520597,12.69657,0.6233051
0.0259668,0.2554252,6.838698,-0.1945237,0.1872667,0.03610312,-0.9828395,0.6586923,12.87415,0.618254
0.0249316,0.1173746,2.358391,0.566029,0.185939,0.03439215,-0.9834804,0.6616186,12.93295,0.632366
0.0229403,-0.2555051,0.5357726,0.3527005,0.1856007,0.03428484,-0.9859368,0.6557573,12.94524,0.640457
0.0238996,-0.317423,1.063078,0.182539,0.1885476,0.03541136,-0.9880995,0.648171,12.97065,0.6448196
0.0259686,-0.2343932,4.887398,0.3658908,0.1882399,0.03365855,-0.9817414,0.6420841,13.09756,0.6543213
0.0229381,-1.277361,1.630715,0.05152696,0.1903247,0.03551044,-0.9834193,0.6127839,13.13497,0.6555033
0.0259333,-1.777614,0.07563148,-0.00686932,0.1890619,0.03591907,-0.9906638,0.5666845,13.13693,0.6553251
0.0229274,0.1862236,0.142035,-0.2150692,0.1888333,0.03482584,-0.9916548,0.5709541,13.14019,0.6503941
0.026937,1.812725,0.02738617,-0.2724602,0.1920065,0.03746064,-0.9817919,0.6197835,13.14093,0.6430549
0.0288876,0.1280947,0.08611336,0.3727321,0.1890918,0.03512974,-0.9820886,0.6234839,13.14341,0.6538222
0.0259328,-0.7205654,-0.1112347,0.004461754,0.1899629,0.03416513,-0.9833103,0.6047976,13.14053,0.6539379
0.0239493,-1.367177,-0.1235668,-0.05754433,0.1901121,0.03552821,-0.986241,0.5720547,13.13757,0.6525598
0.02593,-0.7306774,0.2935339,0.4159698,0.1894238,0.03555119,-0.9901717,0.5531082,13.14518,0.6633459
0.0219041,0.6570833,-0.0651273,0.3630312,0.1869377,0.03269726,-0.9849508,0.567501,13.14375,0.6712978
0.0259657,0.01881324,-0.4700882,-0.477004,0.1888461,0.03488286,-0.9818481,0.5679895,13.13155,0.6589121
0.0239362,-1.05619,-0.1787248,-0.5241088,0.1931404,0.0372427,-0.9849665,0.5427083,13.12727,0.6463669
0.0249364,-1.176658,-0.3193756,0.7536059,0.1881879,0.03724909,-0.989317,0.5133667,13.11931,0.6651591
0.0269275,0.7163986,0.1073,0.2376712,0.1908742,0.03677357,-0.9894102,0.5326575,13.1222,0.671559
0.0239361,2.151382,0.1755427,-0.04080357,0.1916513,0.03685354,-0.9825358,0.5841532,13.1264,0.6705823
0.0219733,1.125219,0.08107902,0.2177613,0.189066,0.03511417,-0.9797601,0.608878,13.12818,0.6753672
0.0239013,-0.5194857,-0.05347925,-0.1256915,0.1853553,0.0377093,-0.9870193,0.5964617,13.1269,0.672363
0.0219673,-1.654496,5.202938,-0.8384694,0.1953536,0.03714108,-0.9865338,0.5601168,13.2412,0.6539441
0.0239085,-1.708842,7.508388,-0.4938256,0.1978941,0.03750727,-0.9847842,0.519261,13.42071,0.6421375
0.0279514,-0.655512,3.858099,0.9479034,0.1970622,0.03617045,-0.9862745,0.5009385,13.52855,0.6686327
0.0229138,0.3168311,1.005784,1.128874,0.1972366,0.03686382,-0.9802613,0.5081983,13.5516,0.6944996
0.026929,-1.154418,0.3104511,0.8333099,0.1954335,0.03711621,-0.9827331,0.477111,13.55996,0.7169397
0.0239708,-0.874507,3.232459,-0.1420263,0.1989442,0.0369447,-0.9912719,0.4561484,13.63744,0.7135352
0.0249269,0.1269179,4.239536,-0.5749159,0.2028371,0.03749514,-0.9795759,0.4593121,13.74312,0.6992044
0.0249045,-0.06239843,1.022939,0.2828104,0.2009176,0.03738322,-0.9824194,0.457758,13.76859,0.7062476
0.0229718,-0.3801586,0.4880545,0.5282823,0.2011732,0.03751377,-0.9835185,0.4490251,13.77981,0.7183832
0.0258961,-0.313583,0.4361279,0.2003126,0.1987567,0.03800595,-0.9857509,0.4409046,13.7911,0.7235705
0.0219434,0.3353957,0.8706168,-0.4154998,0.2045673,0.03959695,-0.9823596,0.4482643,13.8102,0.714453
0.0239603,0.3096865,0.9469185,0.160962,0.2025979,0.03969965,-0.9807894,0.4556845,13.83289,0.7183098
0.0239104,-0.09147714,2.066154,0.3529027,0.2006745,0.03750503,-0.9825441,0.4534972,13.8823,0.7267478
0.0279623,0.06825838,5.16854,-0.3274327,0.205281,0.03897752,-0.9805166,0.4554059,14.02682,0.7175921
0.022936,-0.1521598,4.425347,-0.3306407,0.2067429,0.03665802,-0.9795342,0.4519159,14.12832,0.7100085
0.0248995,-0.4746048,3.549868,-0.5847086,0.2101441,0.03764414,-0.9786279,0.4400985,14.21671,0.6954495
0.0229391,-0.5303434,1.572952,0.07648173,0.211051,0.03829196,-0.983638,0.4279329,14.25279,0.6972039
0.0219408,0.4933501,0.8228277,0.4453624,0.2048477,0.03558178,-0.9842226,0.4387574,14.27085,0.7069755
0.022975,0.810286,7.261233,-1.279431,0.2092364,0.03633466,-0.9842865,0.4573737,14.43767,0.6775806
0.0229732,0.06742986,11.45261,-2.28675,0.2170115,0.03921543,-0.9715465,0.4589228,14.70078,0.6250466
0.0238989,-0.6255302,7.513793,-1.139526,0.2234488,0.03979109,-0.9802898,0.4439733,14.88035,0.5978132
0.0329457,0.5097171,1.388563,0.6951437,0.2240252,0.03928418,-0.9770992,0.4607663,14.92609,0.6207152
0.029886,-0.425686,0.3435936,1.036509,0.2207411,0.03915233,-0.9778756,0.4480442,14.93636,0.6516923
0.0359051,0.1789474,-0.01868149,0.02836324,0.2246354,0.03916483,-0.9770926,0.4544694,14.93569,0.6527107
0.0289222,-0.5493955,-0.1837058,1.027012,0.2225793,0.03830923,-0.9783494,0.4385796,14.93038,0.6824141
0.0249596,-1.031337,3.897324,0.851207,0.2177813,0.03564358,-0.9846776,0.4128379,15.02765,0.7036599
0.0249066,-0.7197505,6.158046,-0.2402076,0.2252712,0.03710289,-0.9786927,0.3949113,15.18103,0.6976771
0.0249333,-0.1854252,5.147693,-0.3619806,0.2289236,0.03760507,-0.978277,0.3902881,15.30938,0.6886517
0.0239713,0.6025273,2.163239,0.321727,0.2291362,0.03795435,-0.9755753,0.4047314,15.36124,0.696364
0.0249279,0.4132551,0.342232,0.728374,0.2290119,0.03819714,-0.9754526,0.415033,15.36977,0.7145208
0.0249405,-0.3573311,3.394527,0.5190054,0.2235267,0.03854134,-0.9758847,0.406121,15.45443,0.7274651
0.0239366,-0.9396271,7.562801,-0.04734338,0.2345707,0.04039416,-0.9715698,0.3836295,15.63546,0.7263318
0.0209792,-1.150838,5.977156,0.04479326,0.2342533,0.04017707,-0.9758654,0.3594859,15.76085,0.7272716
0.0229427,-0.6161088,4.295273,0.09199193,0.2390011,0.04092748,-0.9753121,0.3453507,15.8594,0.7293821
0.0209369,-0.005381701,1.92504,0.6410701,0.2370393,0.03846493,-0.9735144,0.345238,15.8997,0.7428041
0.0229044,0.04091496,0.6843949,0.5105788,0.2381437,0.03810687,-0.9739937,0.3461751,15.91538,0.7544986
0.0239374,-0.3642781,4.849014,-0.1545514,0.2351642,0.03813508,-0.9802812,0.3374552,16.03145,0.7507991
0.0259624,-0.3727536,7.186471,-0.7290762,0.2417734,0.03920714,-0.9717355,0.3277777,16.21803,0.7318705
0.0219058,0.07659494,3.87123,-0.4370071,0.2475067,0.03984557,-0.972029,0.3294555,16.30283,0.7222975
0.0229737,0.00315801,2.985356,0.6533766,0.2490031,0.03840357,-0.9744723,0.3295281,16.37142,0.737308
0.0229405,0.1146043,4.732851,0.7804063,0.2425757,0.03790691,-0.9776184,0.3321571,16.47999,0.7552109
0.0239013,0.8529612,6.654766,-0.8494771,0.2475167,0.0383831,-0.9724067,0.352544,16.63905,0.7349073
0.0269631,-0.05051825,6.879344,-0.8518593,0.2602292,0.04107676,-0.9648788,0.3511819,16.82454,0.7119385
0.0239349,-0.6625495,3.543209,0.6811972,0.2572508,0.04049376,-0.9710479,0.3353238,16.90934,0.7282429
0.0248993,0.642884,0.8842371,0.4334854,0.2538832,0.03928317,-0.9748971,0.3513312,16.93136,0.7390364
0.0249319,1.64271,1.128471,-0.3448166,0.2578267,0.04010893,-0.9678565,0.3922871,16.95949,0.7304394
0.0259768,-0.3101701,5.866617,0.4765749,0.2601572,0.03914839,-0.9686928,0.3842299,17.11189,0.7428193
0.0249269,-0.8565834,4.402188,0.7423679,0.2582327,0.03756498,-0.9705659,0.3628779,17.22162,0.7613242
0.0239377,-0.08192932,1.023407,0.1764241,0.2599248,0.04001087,-0.9700381,0.3609167,17.24612,0.7655474
0.0278985,0.6995147,1.395547,-0.356994,0.2672166,0.04205936,-0.9793736,0.3804321,17.28505,0.7555878
0.024966,0.4681182,7.695864,-0.9934327,0.2645436,0.03843142,-0.9680315,0.3921192,17.47719,0.7307858
0.0209109,-0.4392604,8.114189,-0.7126863,0.2684039,0.03842342,-0.9641847,0.3829338,17.64686,0.7158829
0.0219112,-0.5181672,4.65822,0.07975731,0.270009,0.03893193,-0.9661229,0.3715802,17.74893,0.7176305
0.0249668,0.4815737,0.4283763,0.6839122,0.268187,0.03745965,-0.9662778,0.3836035,17.75963,0.7347056
0.0289199,0.5962376,3.213034,-0.4712411,0.2728087,0.04036056,-0.9771109,0.4008467,17.85255,0.7210774
0.0249242,-0.02673141,14.28975,-2.049486,0.2731886,0.03809482,-0.9665803,0.4001804,18.20871,0.6699956
0.0248984,0.2010375,10.91051,-1.423013,0.282705,0.03965759,-0.9564023,0.4051859,18.48036,0.6345649
0.0249356,0.3562799,1.636741,-0.01137776,0.287838,0.04029903,-0.9575611,0.41407,18.52118,0.6342812
0.0239622,-0.6598439,-0.7849778,1.586777,0.2859413,0.03995607,-0.9623671,0.3982586,18.50237,0.6723038
0.0249401,-0.4748822,-1.394841,2.053212,0.2769424,0.03797321,-0.9640839,0.386415,18.46758,0.7235111
0.0219067,-0.3373211,-0.7251481,0.5379494,0.2800872,0.03833884,-0.9618366,0.3790254,18.45169,0.7352958
0.0269196,-0.5938886,-0.2779006,0.1933257,0.2849784,0.03849089,-0.9630018,0.3630382,18.44421,0.7405
0.027924,-0.5342959,-0.08491945,1.219531,0.2803771,0.03738873,-0.9656396,0.3481185,18.44184,0.7745542
0.0229737,0.210223,0.8724039,-0.1894121,0.2786424,0.03846586,-0.9635694,0.3529481,18.46188,0.7702027
0.0239382,0.5476912,0.7732842,-1.305173,0.2844494,0.03956527,-0.9596912,0.3660588,18.48039,0.7389592
0.0229026,0.1361798,0.02127625,-0.1962252,0.2854685,0.03959586,-0.9636011,0.3691777,18.48088,0.7344651
0.0219679,0.6189909,-0.1329257,0.9644035,0.2821993,0.03849395,-0.9653646,0.3827756,18.47796,0.7556511
0.0229461,1.027228,0.3636986,1.003002,0.2814036,0.03881919,-0.9597335,0.4063465,18.4863,0.778666
0.0229376,0.2252134,0.3451329,0.5546654,0.2800725,0.03759571,-0.9602485,0.4115123,18.49422,0.7913887
0.0219074,-0.5858588,2.056472,0.2831032,0.2851453,0.03913052,-0.9672856,0.3986777,18.53927,0.7975907
0.0339094,-0.7356778,3.839955,0.3474791,0.2874226,0.03752598,-0.9631013,0.3737313,18.66948,0.8093736
0.0359038,0.3041842,1.975103,0.3998375,0.2848328,0.03859848,-0.9609191,0.3846527,18.7404,0.8237292
0.0329476,0.009398805,-0.009000228,-0.2764966,0.2862541,0.03857959,-0.9571019,0.3849624,18.7401,0.8146193
0.0279268,-1.750078,6.239933,-0.3305576,0.2939224,0.04002426,-0.9671725,0.3360883,18.91436,0.8053879
0.0329096,0.4695228,7.204918,-0.4420498,0.2925898,0.03970578,-0.9568945,0.3515401,19.15147,0.7908402
0.0279231,0.3925129,1.201376,-0.2343086,0.296349,0.03958745,-0.9548883,0.3625003,19.18502,0.7842976
0.027954,-1.25096,-0.4181547,0.6328622,0.2953093,0.03839376,-0.9596897,0.3275309,19.17333,0.8019886
0.0298921,-0.8690448,0.4104042,0.4184647,0.294845,0.03999663,-0.962381,0.3015533,19.1856,0.8144974
0.0269637,0.5355231,0.5038436,0.3396049,0.2961741,0.04036229,-0.9613817,0.315993,19.19918,0.8236544
0.0239027,0.9326558,-0.3346519,0.6221293,0.2939131,0.03982318,-0.9552841,0.338286,19.19118,0.838525
0.0329099,-1.342071,-0.04852942,-0.02528358,0.2945821,0.03863793,-0.9601872,0.2941186,19.18959,0.8376929
0.0219746,-0.7960488,3.012311,-0.8743697,0.2944529,0.04090886,-0.9713276,0.2766257,19.25578,0.818479
0.0239231,0.8058609,10.2637,-2.295572,0.2988098,0.04095759,-0.9573004,0.2959044,19.50132,0.7635618
0.0219197,1.393532,7.65488,-2.239009,0.3090447,0.04104721,-0.9454078,0.3264502,19.66912,0.7144834
0.0268945,-0.7812206,0.6053088,0.1677547,0.3085004,0.04034975,-0.9510578,0.3054397,19.68539,0.718995
0.0239704,-1.982505,-1.677394,1.649621,0.3027019,0.04084637,-0.9562732,0.2579182,19.64519,0.7585371
0.0239263,-1.450466,-3.066305,1.808448,0.3022717,0.0403895,-0.9613072,0.223214,19.57182,0.8018066
0.0229412,-0.263378,-1.6119,1.355753,0.3022464,0.04025185,-0.9589796,0.2171717,19.53484,0.8329092
0.0249433,-0.1988549,0.05836165,1.111505,0.2970649,0.0394588,-0.9534096,0.2122116,19.5363,0.8606338
0.0239001,-1.477203,0.5061322,0.1645454,0.3001637,0.04158299,-0.958628,0.1769063,19.54839,0.8645664
0.0219907,-0.9934559,0.144364,-0.09238475,0.3030009,0.04234929,-0.9617752,0.1550596,19.55157,0.8625348
0.0209094,0.6377571,-0.3445056,0.2381926,0.300043,0.04195032,-0.9588721,0.1683947,19.54436,0.8675153
0.0249354,0.6637359,0.2684674,-0.3975112,0.2998549,0.04215457,-0.9529892,0.1849452,19.55106,0.8576032
0.0279572,-0.6692379,0.6020656,-0.6180075,0.3017465,0.04122137,-0.9582435,0.1662352,19.56789,0.8403254
0.0258947,0.3215986,-0.1055094,-0.1473029,0.3035856,0.04013412,-0.9587189,0.1745629,19.56516,0.8365111
0.0259292,0.3520107,-0.2597445,0.9889302,0.3022669,0.041782,-0.9503883,0.1836902,19.55842,0.8621532
0.024966,-1.448026,-0.1538731,1.327175,0.2991683,0.0410772,-0.9566824,0.1475388,19.55458,0.8952875
0.0219499,-1.617126,0.4452025,0.1335419,0.2987384,0.03988623,-0.9614763,0.1120431,19.56435,0.8982187
0.0219463,0.1708987,1.128769,-0.7588354,0.3047737,0.04354707,-0.9570874,0.1157937,19.58913,0.881565
0.0219053,0.8138981,0.6108312,-0.2303947,0.3030697,0.04170583,-0.9567531,0.1336223,19.60251,0.8765182
0.0239634,0.7733269,-0.1023961,0.1506351,0.3020975,0.04084693,-0.9567708,0.1521539,19.60005,0.8801279
0.0288983,0.1106119,-0.4326811,0.2406476,0.3018248,0.04021659,-0.9539592,0.1553504,19.58755,0.8870822
0.0299181,-0.1175628,1.834143,-0.2176591,0.2959632,0.03927973,-0.9639658,0.1518331,19.64242,0.8805703
0.0239702,0.7128204,7.728012,-1.83161,0.3043557,0.04229022,-0.9519529,0.1689196,19.82767,0.8366662
0.0269207,-0.2282452,4.743704,-1.072026,0.3132064,0.04401198,-0.9477882,0.1627751,19.95537,0.8078066
0.0229113,-1.2865,0.1952432,0.8823959,0.3116966,0.04282677,-0.9541888,0.1332997,19.95984,0.8280234
0.0229144,-1.027418,-1.526644,1.822133,0.307226,0.04026187,-0.9570802,0.109757,19.92486,0.8697764
0.0209668,0.005801363,-2.737883,1.472328,0.3026146,0.04135628,-0.9595803,0.1098787,19.86745,0.9006464
0.0239116,0.6290057,-1.475652,0.3550385,0.3030695,0.04072675,-0.9563922,0.1249192,19.83217,0.909136
0.0209788,0.3670351,-0.1267462,-0.6758031,0.3053421,0.040955,-0.9524404,0.1326191,19.82951,0.8949584
0.027891,-1.328894,0.3893072,-0.1270732,0.3082788,0.04293197,-0.9539845,0.09555495,19.84037,0.8914142
0.0249306,-1.552614,0.7437645,0.5595918,0.301071,0.04112965,-0.963278,0.05684735,19.85891,0.9053652
0.0229327,1.071529,0.4754724,-0.6831551,0.3048185,0.042228,-0.9606507,0.08142041,19.86982,0.8896986
0.0239025,2.606666,-0.3400584,-1.140785,0.310801,0.04377662,-0.950761,0.1437263,19.86169,0.862431
0.0219413,0.4750325,-0.005156149,0.001903174,0.305476,0.0403509,-0.953301,0.1541491,19.86157,0.8624728
0.0209857,-1.280666,1.716023,-0.3067536,0.3023334,0.04047605,-0.9559125,0.1272734,19.89759,0.8560354
0.0229032,-1.043987,3.250731,-1.743482,0.3067545,0.04296179,-0.9595188,0.1033628,19.97204,0.8161041
0.0259324,0.5628255,3.515916,-1.620424,0.3146946,0.04427825,-0.9500973,0.1179582,20.06322,0.7740826
0.0269297,-0.0159293,-0.1804145,0.2595187,0.3129588,0.04290728,-0.9470634,0.1175292,20.05836,0.7810714
0.0229649,-3.57312,-1.025463,1.417378,0.3079184,0.04122043,-0.9538782,0.03547287,20.03481,0.8136213
0.0239074,-3.178366,0.1744028,0.9856024,0.3106233,0.04303197,-0.9674388,-0.0405136,20.03898,0.8371845
0.0259639,1.497467,-0.5834134,0.842575,0.3083848,0.04451378,-0.9531143,-0.001633517,20.02383,0.859061
0.0259438,1.316133,-0.6636098,-0.06707124,0.3071729,0.04194307,-0.9529016,0.03251199,20.00661,0.8573209
0.0218936,0.4379691,-0.02011471,-1.067529,0.3092333,0.0437802,-0.9523736,0.04210071,20.00617,0.8339489
0.0239702,-0.5304729,1.04047,-0.999202,0.3119259,0.04612313,-0.9540407,0.02938516,20.03111,0.8099978
0.0219085,-0.5622048,1.035957,-0.3361988,0.3097757,0.04577334,-0.9579918,0.0170681,20.05381,0.8026322
0.024969,1.590263,-0.004511761,-0.2306547,0.3091677,0.04430323,-0.9576415,0.05677538,20.0537,0.796873
0.0329208,1.252818,-0.03020518,-0.3099056,0.3096686,0.04093606,-0.9466268,0.09801914,20.0527,0.7866706
0.0289228,-1.706201,0.5774176,-0.1308332,0.3088896,0.04232348,-0.9538587,0.04867101,20.0694,0.7828866
0.0259568,-1.756365,0.09910379,0.004026206,0.3120859,0.04443345,-0.9568697,0.003081396,20.07198,0.7829911
0.0259024,-0.9923707,1.410434,1.03462,0.3073958,0.04188222,-0.96197,-0.02262339,20.10851,0.8097902
0.0229753,0.2109028,2.223907,0.1594864,0.3096271,0.042575,-0.9544609,-0.01777783,20.1596,0.8134544
0.0249335,0.8376382,0.2337557,-0.7890798,0.3132388,0.04476577,-0.9509696,0.003107419,20.16543,0.7937799
0.0268918,0.1823262,-0.07772537,-0.3255289,0.3120717,0.04356825,-0.9552823,0.008010499,20.16334,0.7850258
0.0279281,1.47488,-0.2903126,-0.1713693,0.3118303,0.04430291,-0.9557705,0.0492011,20.15523,0.7802398
0.0239509,1.325188,-0.3018949,-0.01733019,0.3120019,0.04401556,-0.9491512,0.08094054,20.148,0.7798247
0.0238985,-0.08975504,-0.1136185,-0.109463,0.3113039,0.04342077,-0.9519831,0.07879554,20.14529,0.7772087
0.0219931,-0.3881488,-0.1865205,-0.1369631,0.3112111,0.04258126,-0.954319,0.07025895,20.14118,0.7741965
0.0238844,-0.01132317,-0.03806663,-0.1061515,0.3109828,0.04210006,-0.9555508,0.0699885,20.14027,0.7716612
0.0219678,0.551993,0.1745179,-0.08111129,0.3112247,0.04124333,-0.9550636,0.08211457,20.14411,0.7698793
0.0259372,0.835336,0.0009660386,-0.1839311,0.3117947,0.0409773,-0.9513811,0.1037809,20.14413,0.7651087
0.0259315,0.09737504,-0.1727911,-0.1262747,0.3109563,0.04122748,-0.9528605,0.1063059,20.13965,0.7618342
0.026934,-0.7315677,-0.04108461,0.1093562,0.3114424,0.04232999,-0.9530922,0.08660189,20.13855,0.7647796
0.0329098,-1.061416,0.06886914,0.07422523,0.3108627,0.04332439,-0.9561568,0.0516709,20.14081,0.7672223
0.0359027,0.5800264,0.01381341,-0.3820061,0.3113745,0.04346341,-0.958356,0.07249542,20.14131,0.7535073
0.0339407,1.45932,-0.02310274,0.5846446,0.3116222,0.04168051,-0.9470881,0.1220257,20.14052,0.7733505
0.0309207,-1.558465,0.005903007,0.8478864,0.3084916,0.04218009,-0.9509227,0.07383692,20.14071,0.7995678
0.0288924,-1.926428,0.2079808,-0.1933791,0.3098533,0.04373985,-0.9642563,0.01817779,20.14672,0.7939806
0.0249725,1.506745,0.06136658,-0.6373292,0.3129502,0.0438318,-0.9575987,0.05580499,20.14825,0.7780649
0.0288891,1.864601,0.2153529,0.1497287,0.3110111,0.04167697,-0.946973,0.1096716,20.15447,0.7823904
0.0329456,-0.9929466,0.1769439,0.2306313,0.3105942,0.04232946,-0.9535928,0.07695842,20.1603,0.7899887
0.027888,-0.5066171,-0.03542531,0.2632621,0.3103806,0.04259139,-0.9564129,0.06282988,20.15931,0.7973306
0.025959,0.5957636,0.05647794,0.0008309325,0.3097417,0.04306058,-0.9539658,0.07829531,20.16078,0.7973521
0.0239412,0.4989017,0.3321735,-0.4310519,0.3115373,0.0450064,-0.9516016,0.09023961,20.16873,0.7870322
0.0239374,-0.2216998,0.5089002,0.03149632,0.3131548,0.04344205,-0.9539216,0.0849327,20.18091,0.7877862
0.0219729,-0.171915,0.4658296,0.4740735,0.3110854,0.04319028,-0.9541938,0.08115523,20.19114,0.7982029
0.0239041,0.1606093,0.3809381,0.1828667,0.3095153,0.04209107,-0.9552011,0.08499444,20.20025,0.8025742
0.0229394,-0.1820017,0.4493777,-0.2182141,0.3139784,0.04244874,-0.9508541,0.08081944,20.21056,0.7975685
0.0408781,-0.08805554,0.06731404,0.0724797,0.3103898,0.04063897,-0.9565488,0.07721989,20.21331,0.8005313
0.0249333,0.4587997,0.1140252,-0.3248583,0.3132772,0.04062825,-0.9529589,0.08865928,20.21616,0.7924315
0.0229459,-0.05805881,0.33232,-0.1993323,0.3149629,0.04331502,-0.9519393,0.08732707,20.22378,0.7878577
0.0249326,-0.6984718,0.3553694,0.2956471,0.3113323,0.04343798,-0.9545568,0.06991235,20.23264,0.7952289
0.0229303,0.06055808,0.2985298,0.03984667,0.312821,0.04223604,-0.9563856,0.07130097,20.23949,0.7961426
0.0249618,0.9428508,0.1281646,0.1096502,0.3139676,0.04378831,-0.9503547,0.09483622,20.24269,0.7988796
0.0249399,-0.2523134,-0.01820142,0.5536368,0.3120272,0.04415321,-0.951479,0.08854355,20.24223,0.8126873
0.0259331,-0.8204893,0.02203632,0.1802129,0.3101383,0.04185702,-0.9562983,0.06726572,20.2428,0.8173608
0.0289189,0.4659269,-0.0689212,-0.5759908,0.312905,0.04355976,-0.9534336,0.08073981,20.24081,0.8007038
0.0269539,0.07573781,0.02359888,-0.1387939,0.3142504,0.04258913,-0.9534239,0.08278124,20.24145,0.7969627
0.0219428,-0.048637,0.1698943,0.1604588,0.3110974,0.04087245,-0.9544548,0.08171401,20.24517,0.8004836
0.0249063,0.2994728,0.132829,-0.09773167,0.313755,0.0420929,-0.9525753,0.08917277,20.24848,0.7980495
0.0219775,-0.03727055,0.07960067,0.2802253,0.3144827,0.04209371,-0.9521987,0.08835366,20.25023,0.8042082
0.0229311,-0.5146802,0.1561888,0.4590968,0.3119427,0.04160545,-0.9539491,0.07655147,20.25381,0.8147358
0.0219136,-0.04856519,0.1163216,-0.1830222,0.3116976,0.04258262,-0.9541905,0.07548723,20.25636,0.8107251
0.0259673,0.6202806,-0.04322869,-0.7988396,0.3140023,0.04295263,-0.9531793,0.09159425,20.25524,0.7899814
0.0269288,0.2236764,-0.1247465,0.0163166,0.3142373,0.04245885,-0.9521992,0.09761759,20.25188,0.7904208
0.0239352,-0.3572328,-0.007013152,0.5402191,0.3142173,0.04269152,-0.9504818,0.08906715,20.25171,0.803351
0.0258943,-0.5235285,-0.0793412,0.4448596,0.3110747,0.04244962,-0.9529732,0.07551074,20.24966,0.8148704
0.0239362,-0.3892119,0.02830042,-0.266672,0.313061,0.04321375,-0.9563759,0.06619449,20.25033,0.8084872
0.0299202,0.2096931,0.03839913,0.03894899,0.3138715,0.04380335,-0.9526846,0.07246855,20.25148,0.8096526
0.031917,-1.02232,-0.01715191,0.7039786,0.3121623,0.04257085,-0.9521011,0.03983917,20.25093,0.8321215
0.0289213,-1.191345,0.003069373,0.3492704,0.3113844,0.04334707,-0.9592147,0.005383912,20.25102,0.8422229
0.0319115,1.358208,-0.1136635,-0.4470329,0.315177,0.04293101,-0.94912,0.04872636,20.2474,0.8279574
0.0269542,0.04179309,-0.07021961,-0.02979304,0.3136183,0.04171628,-0.9511086,0.04985286,20.2455,0.8271543
0.0259414,-0.4604457,0.08834337,0.2077089,0.3115065,0.04163443,-0.9586121,0.03790826,20.2478,0.8325426
0.0229224,0.970083,0.07330084,-0.2921644,0.312084,0.04186245,-0.9557843,0.06014489,20.24948,0.8258455
0.0249065,1.152265,0.1302116,-0.2807109,0.3143378,0.0430583,-0.9504778,0.08884377,20.25272,0.818854
0.0249074,-0.243198,0.1357184,0.3055341,0.313595,0.04378258,-0.9497463,0.08278634,20.2561,0.8264641
0.0269284,-0.4991824,0.09356664,-0.1317369,0.3114769,0.04222842,-0.9561568,0.06934415,20.25862,0.8229166
0.0299188,-0.1640805,0.495949,-0.0286056,0.3169262,0.04504429,-0.9536195,0.06443506,20.27346,0.8220607
0.0279512,0.2495877,0.4651457,0.5701186,0.3115881,0.04320148,-0.9555359,0.07141133,20.28646,0.8379962
0.0279232,1.235569,0.1375078,-0.617558,0.3133879,0.04037726,-0.9518561,0.1059124,20.2903,0.820752
0.0259064,0.2274114,0.02436421,-0.6179422,0.3182369,0.04356321,-0.9503043,0.1118038,20.29093,0.8047433
0.0239353,-1.0144,0.06147068,0.5800344,0.3138014,0.04138668,-0.9565021,0.08752382,20.2924,0.8186266
0.0259311,0.307445,0.04017185,0.3697862,0.3130432,0.04222401,-0.9544218,0.09549621,20.29344,0.8282155
0.0269288,0.3869745,0.06839412,-0.2369283,0.314068,0.04340868,-0.9482722,0.105917,20.29528,0.8218353
0.0389305,-0.583976,0.04813091,0.5917864,0.3126953,0.04284507,-0.9562603,0.08318249,20.29716,0.8448739
0.0309173,0.6577209,-0.07796633,-0.5835104,0.3136325,0.04258148,-0.952696,0.1035174,20.29474,0.8268334
0.0289245,-0.334482,0.07704338,-0.1167296,0.317158,0.04332482,-0.9519125,0.09384272,20.29697,0.823457
0.0268985,-0.1409811,0.07116311,0.4891313,0.3117285,0.04064332,-0.9562873,0.09005053,20.29889,0.8366139
0.0268917,0.9601939,-0.03580324,-0.05230901,0.3138645,0.04147404,-0.9512299,0.1158718,20.29792,0.8352072
0.0299204,0.004146799,0.0497564,-0.1649648,0.3149489,0.04171571,-0.9501118,0.1159959,20.29941,0.8302714
0.032913,-1.042234,0.2258087,0.6937691,0.3148594,0.0421019,-0.9531747,0.0816928,20.30685,0.8531054
0.0339098,0.1045827,0.0257399,0.1283752,0.3128223,0.04125778,-0.9561472,0.08523918,20.30772,0.8574586
0.0319127,1.209586,-0.1504676,-0.2901739,0.316518,0.04305908,-0.9491028,0.1238403,20.30292,0.8481984
0.027925,-0.1923044,-0.07191163,0.396335,0.3125268,0.04257167,-0.951974,0.1184702,20.30091,0.859266
0.0299218,-0.6686237,0.2160293,-0.2214826,0.314285,0.0421205,-0.9563686,0.0984638,20.30737,0.8526388
0.0279268,0.5351576,0.08458165,-0.1209073,0.3150905,0.04258474,-0.952188,0.113409,20.30973,0.8492623
0.0259595,0.2088652,0.0172685,0.2261035,0.3136138,0.04146885,-0.9506201,0.1188311,20.31018,0.8551318
0.0288957,-0.6048722,0.09392789,0.05022338,0.3148682,0.04161769,-0.9537908,0.1013529,20.3129,0.8565831
0.0339085,-0.44918,0.07774146,-0.09661131,0.3135232,0.04112011,-0.9533203,0.08612186,20.31553,0.8533071
0.0329063,-0.2383014,0.2683244,0.08988015,0.3137679,0.04161115,-0.9535591,0.07828024,20.32436,0.8562648
0.0299195,0.1175367,0.3508667,0.4383653,0.3144713,0.04355536,-0.9516985,0.08179688,20.33486,0.8693804
0.0329113,0.09641133,0.3645274,0.3069966,0.3140019,0.04405379,-0.9535394,0.0849699,20.34686,0.8794841
0.0279528,-0.1400632,0.4048352,0.166276,0.3148382,0.04465897,-0.9521767,0.08105474,20.35817,0.8841319
0.0278974,-0.1431305,0.3744712,0.1053033,0.314236,0.04380416,-0.9525577,0.07706177,20.36862,0.8870696
0.026929,0.4729849,0.1178763,-0.07089549,0.3157207,0.04223271,-0.9538987,0.08979878,20.37179,0.8851604
0.0269303,0.9880558,-0.01751212,0.0433458,0.3142233,0.04220567,-0.9508528,0.1164074,20.37132,0.8863277
0.0329346,-0.4209583,0.07451474,-0.07463589,0.3154848,0.04125746,-0.9542761,0.1025433,20.37378,0.8838696
0.0259313,-0.1014385,0.154458,-0.02857278,0.3163553,0.04078198,-0.9556171,0.0999129,20.37778,0.8831287
0.0279358,0.9070616,0.02739041,0.1049842,0.3144866,0.03977095,-0.9517244,0.1252524,20.37855,0.8860615
0.0268966,0.5316429,-0.01193522,-0.1044327,0.3170377,0.0408778,-0.9511954,0.1395518,20.37823,0.8832527
0.0249052,0.1270864,-0.03839815,0.04558926,0.3145012,0.04088113,-0.9534326,0.1427169,20.37727,0.8843881
0.0239335,0.2241344,0.2654093,-0.197227,0.3143655,0.04258557,-0.9528096,0.1480812,20.38362,0.8796678
0.0289578,-0.04448781,0.2413751,-0.3957773,0.317292,0.04369979,-0.9531341,0.1467929,20.39061,0.8682069
0.0269179,0.1808635,0.115502,0.04984738,0.3148952,0.04065501,-0.955881,0.1516614,20.39372,0.8695487
0.0229713,1.079286,0.04475598,0.003269458,0.3158402,0.03978432,-0.952811,0.176454,20.39475,0.8696238
0.0239368,0.5187269,0.009454198,0.09405282,0.3151855,0.04012159,-0.9488942,0.1888707,20.39498,0.8718751
0.0249665,-0.8232155,0.1264123,-0.2043611,0.3144938,0.03965298,-0.952338,0.1683178,20.39813,0.8667729
0.0239005,-0.6422444,0.169888,-0.4787861,0.3172083,0.04029584,-0.9553649,0.1529679,20.40219,0.8553298
0.0259318,0.1804296,0.2159216,0.5816492,0.3170269,0.04050419,-0.9500949,0.1576467,20.40779,0.8704129
0.0349046,-0.5885763,0.07361645,0.1468848,0.3105254,0.03893453,-0.9571718,0.1371027,20.41036,0.8755399
0.0339118,1.455562,0.03784958,-1.357774,0.3212107,0.04238092,-0.9540761,0.1864634,20.41165,0.8294953
0.0329135,0.2945626,-0.09044421,1.161799,0.3172026,0.04156543,-0.9443243,0.1961585,20.40867,0.8677342
0.0269289,-2.171999,1.749803,0.1302127,0.3102196,0.04146591,-0.9525001,0.137669,20.45579,0.8712407
0.0269578,-0.09855388,0.7739854,-0.3666275,0.318185,0.04238125,-0.9561967,0.1350122,20.47666,0.8613572
0.0269216,0.6777978,0.1735971,0.05465756,0.3180726,0.04157908,-0.9457846,0.1532596,20.48133,0.8628287
0.023937,-1.539865,0.1557776,-0.1317094,0.3156781,0.04232936,-0.9500987,0.1163998,20.48506,0.8596759
0.0269015,-1.221546,0.1276208,-0.1975453,0.3199022,0.04263959,-0.9571546,0.08353841,20.48849,0.8543617
0.0319163,0.9478764,-0.1404606,0.5813602,0.3143551,0.03976467,-0.950868,0.1137911,20.48401,0.8729165
0.0259299,0.09398815,-0.1608245,-0.3206537,0.3159345,0.03989054,-0.9503576,0.1162282,20.47984,0.864602
0.0249601,-0.6430137,0.07449196,-0.6062923,0.3192638,0.04029443,-0.9537464,0.1001785,20.4817,0.8494689
0.0279261,-0.07863509,0.3113608,0.7124443,0.3182778,0.04150757,-0.9532598,0.09798257,20.49039,0.8693647
0.0269006,0.04580617,0.2143032,0.9127842,0.3131298,0.04220323,-0.9512339,0.09921478,20.49616,0.8939191
0.02397,-0.3047228,0.2707645,-0.02656981,0.3169133,0.04283378,-0.9516737,0.09191058,20.50265,0.8932822
0.0249361,-0.02252133,0.5022739,-0.1009093,0.3192517,0.04261227,-0.9534854,0.09134898,20.51517,0.890766
0.0269287,0.04984284,3.631966,0.5093604,0.3161853,0.042588,-0.9519294,0.09269118,20.61298,0.9044824
0.028888,-0.6349347,10.53247,-0.3785171,0.3191126,0.04247898,-0.9518945,0.07434919,20.91724,0.8935478
0.0259565,-0.2294718,12.20735,-1.439428,0.3300619,0.04263447,-0.9494312,0.06839291,21.2341,0.8561853
0.0288987,0.1246591,10.08295,-0.8930556,0.3394462,0.04162076,-0.937434,0.0719954,21.52549,0.8303771
0.0269262,-1.285417,3.941253,1.240033,0.3354801,0.04200511,-0.942873,0.03738401,21.63161,0.8637665
0.0269637,-0.7370915,1.052675,1.118575,0.3314329,0.04070034,-0.9513891,0.0175093,21.65999,0.8939274
0.0249316,0.8916975,0.9668002,-0.01934903,0.3387882,0.04361994,-0.9447829,0.03974075,21.6841,0.893445
0.0269029,0.5713781,0.7313118,0.5784052,0.3386368,0.04347928,-0.942089,0.05511248,21.70377,0.9090058
0.0299189,-0.4738255,3.310648,0.6281368,0.3324252,0.04095951,-0.9529688,0.04093614,21.80282,0.927799
0.0279064,-0.7159483,11.36152,-0.7881839,0.3398862,0.04350276,-0.9447703,0.0209566,22.11988,0.9058036
0.0268984,-0.4649636,12.54343,-0.8451499,0.3510569,0.0445024,-0.9405824,0.008449826,22.45728,0.8830705
0.0259307,-0.2626817,9.797758,0.2891168,0.3549173,0.04412735,-0.9366155,0.001638306,22.71134,0.8905675
0.0269278,-0.3472807,5.468271,1.242708,0.3524853,0.04204032,-0.9365369,-0.007713198,22.85859,0.9240309
0.0239716,-0.477666,6.766258,-0.1885725,0.3550797,0.04390752,-0.9401698,-0.01916362,23.02079,0.9195105
0.0268922,-0.4157373,11.78249,-1.214906,0.3624962,0.04478378,-0.9383573,-0.03034371,23.33764,0.886839
0.0309161,0.2739508,12.42501,0.1397896,0.3712218,0.04356612,-0.9328662,-0.02187422,23.72178,0.8911608
0.0339115,0.2585177,9.282131,1.02831,0.3735796,0.04548596,-0.926205,-0.01310749,24.03655,0.9260323
0.0299534,-0.1639242,3.518891,1.014496,0.3720354,0.04134301,-0.9284588,-0.01801758,24.14195,0.9564199
0.0278924,-0.2522143,5.37101,-0.4864888,0.3765317,0.04105952,-0.9378445,-0.02505245,24.29176,0.9428505
0.0278989,-0.02242478,15.56186,-1.752941,0.3870728,0.04515309,-0.921998,-0.02567807,24.72592,0.8939454
0.0299176,0.9138643,10.61371,-0.4304308,0.3937989,0.04286929,-0.9227899,0.001662552,25.04346,0.8810679
0.0239377,1.707984,4.087168,0.6911292,0.3919297,0.04026716,-0.9182953,0.04254776,25.14129,0.897612
0.0259311,0.5982692,1.012842,0.1769549,0.3918017,0.04111952,-0.9180458,0.05806154,25.16756,0.9022006
0.0309429,-1.492839,6.222723,-0.1711713,0.3977551,0.04340864,-0.9277637,0.01186879,25.36011,0.8969041
0.0269026,-1.330491,9.5612,0.3440791,0.4013256,0.0439837,-0.9199939,-0.02392488,25.61733,0.9061607
0.0219773,-0.1050297,3.737943,0.9057365,0.3996155,0.04434149,-0.9198897,-0.02623315,25.69948,0.9260663
0.0229005,0.4146245,0.8597744,0.7352691,0.4022886,0.04508183,-0.9192391,-0.01673804,25.71917,0.9429044
0.0249078,0.1176981,5.552076,0.5339032,0.4035615,0.04230491,-0.9230427,-0.01380644,25.85746,0.9562027
0.0269281,0.3430983,9.505108,-0.7775539,0.4033524,0.04298599,-0.9154407,-0.004567451,26.11341,0.9352646
0.0269559,0.1417624,7.669485,-1.193204,0.4104158,0.04374593,-0.9147367,-0.0007461174,26.32015,0.9031008
0.0338839,0.6013603,1.081588,0.1445337,0.4156484,0.04082553,-0.9126093,0.01963031,26.3568,0.9079981
0.0309541,-0.1814795,0.8191782,1.427953,0.4110737,0.04194209,-0.9184183,0.01401278,26.38215,0.9521992
0.0328794,0.5463452,7.826479,-0.8619491,0.413671,0.04361559,-0.9112658,0.03197629,26.63948,0.9238588
0.0299527,0.6336775,3.462587,-0.8055466,0.4244677,0.04460867,-0.906347,0.05095664,26.7432,0.8997304
0.0358683,-0.704916,0.6221392,1.829993,0.4174633,0.04339487,-0.9122018,0.0256725,26.76551,0.9653692
0.0329123,-0.06441604,6.210614,0.03129849,0.4171852,0.04087635,-0.9192094,0.02355242,26.96992,0.9663993
0.0418503,0.87007,3.634969,-0.7198783,0.4282575,0.04230607,-0.9063168,0.05996511,27.12204,0.9362721
0.0558522,0.8856249,0.8555672,0.8814805,0.4223111,0.03874817,-0.907762,0.1094292,27.16983,0.9855047
0.0458778,-0.3583441,0.7128135,0.7201471,0.4296376,0.04013271,-0.9090117,0.09298917,27.20253,1.018543
0.0428851,-0.303372,0.7217882,0.8181223,0.4232747,0.03935718,-0.906888,0.07997903,27.23348,1.053629
0.037897,-0.3627571,13.73612,-1.062803,0.4330388,0.04246496,-0.9085864,0.06623162,27.75404,1.013352
0.0418847,0.7161519,2.907428,-0.02652024,0.4384576,0.04171353,-0.902029,0.09622743,27.87582,1.012241
0.034907,0.2378031,0.4325008,0.869517,0.4388158,0.04158816,-0.90129,0.1045284,27.89091,1.042593
0.0349046,-0.6292849,2.936919,0.02305926,0.4343815,0.04014656,-0.9078506,0.08256348,27.99343,1.043398
0.0329117,0.2545782,8.229525,-0.5272752,0.446474,0.04099567,-0.8987494,0.09094208,28.26427,1.026044
0.0349078,0.08461287,1.194542,0.1899613,0.4434417,0.03891167,-0.8995361,0.09389573,28.30597,1.032676
0.0368967,0.3530382,0.8190302,0.09820604,0.447341,0.04039565,-0.8997236,0.1069217,28.33619,1.036299
0.0398927,0.006831418,10.14079,-0.03359399,0.4475586,0.04050324,-0.8973912,0.1071942,28.74073,1.034959
0.0349113,0.4130737,3.660523,-0.1748623,0.452513,0.04135467,-0.8935251,0.1216151,28.86853,1.028854
0.0369004,0.4900722,0.7714508,0.268513,0.4564125,0.04210456,-0.8934725,0.139699,28.897,1.038762
0.0538562,-0.7292437,0.3553273,1.40002,0.4543596,0.04247466,-0.8954561,0.1004247,28.91613,1.114162
0.0428865,0.2745391,0.8334371,-0.1650284,0.4537256,0.04037694,-0.8925365,0.1121987,28.95188,1.107085
0.0398935,-0.6168215,0.5025561,0.364848,0.4529435,0.03747936,-0.8979594,0.08759156,28.97192,1.12164
0.0448796,1.260997,2.527761,-0.388316,0.463083,0.03807396,-0.8886386,0.1441846,29.08537,1.104212
0.0408912,-0.0123049,4.288289,0.1498769,0.456761,0.03964825,-0.8910337,0.1436814,29.26072,1.110341
0.0388954,0.07443506,0.1625457,-0.5542401,0.4595557,0.04185734,-0.8908618,0.1465766,29.26705,1.088784
0.0458773,-0.4363731,3.681244,-0.07498188,0.4501456,0.03808296,-0.8988473,0.126557,29.43593,1.085344
0.0478717,0.7062933,16.07113,-3.588048,0.4800225,0.04259733,-0.8779821,0.1603684,30.20528,0.9135778
0.0339085,0.6028423,0.05399079,0.1083136,0.4817666,0.04091391,-0.8806692,0.1808099,30.20712,0.9172506
0.0349071,-0.5139915,-1.982307,2.422541,0.4705758,0.03745468,-0.8821777,0.162868,30.13792,1.001814
0.0329105,-1.498762,-0.989246,0.5951749,0.4713216,0.03734407,-0.8833951,0.113543,30.10536,1.021402
0.0289256,-2.336742,-0.01341426,-0.08956133,0.4738936,0.03968728,-0.8851863,0.04595129,30.10497,1.018811
0.0409261,0.1300731,1.686314,-0.3744675,0.4726276,0.0429086,-0.893147,0.05127468,30.17399,1.003486
0.033907,2.670784,0.2131095,-0.7634227,0.4750481,0.0433247,-0.8806118,0.1418329,30.18121,0.9776005
0.0319168,0.1082239,-0.4885056,-0.2057679,0.472024,0.04124562,-0.8821338,0.1452871,30.16562,0.971033
0.0309558,-0.8923283,-0.01540622,-0.331282,0.4762286,0.04301257,-0.8879542,0.1176644,30.16515,0.9607779
0.0289136,-0.1775252,-0.3776524,0.7118709,0.4735965,0.04038831,-0.8806497,0.1125315,30.15423,0.9813606
0.0279112,-1.941093,-0.2193652,0.5818337,0.4718212,0.04016797,-0.8854533,0.05835325,30.1481,0.9976003
0.0399123,-0.3673633,0.4313244,-0.08346466,0.4738007,0.04227414,-0.8887243,0.04369094,30.16532,0.9942691
0.0468513,0.9956549,-0.009485538,-0.1575781,0.4710526,0.03953053,-0.8819124,0.09033866,30.16488,0.9868863
0.0388979,-0.5584377,-0.1976135,0.3539319,0.4779021,0.04263264,-0.8847494,0.06861661,30.15719,1.000654
0.0369019,-0.6478199,0.5144601,0.956183,0.4702011,0.04136363,-0.8827681,0.04471082,30.17617,1.035939
0.0359258,-1.038659,0.1094598,-0.7534254,0.475126,0.04324936,-0.8875982,0.00739618,30.18011,1.008871
0.0418644,0.4178866,-0.05549898,0.3978001,0.4755779,0.04237322,-0.8840441,0.02489075,30.17778,1.025525
0.0408903,0.1618212,0.8389864,-0.4521179,0.4721765,0.0421212,-0.8851904,0.03150767,30.21209,1.007038
0.0409269,0.05477347,0.03002928,-0.4573208,0.4778928,0.04189279,-0.8836514,0.03374938,30.21332,0.9883208
0.0289164,-0.1437669,-0.1762086,0.4546791,0.4729085,0.04236944,-0.8853024,0.02959216,30.20822,1.001469
0.0279267,0.2370242,0.1938419,-0.2637645,0.4745981,0.04273346,-0.8838083,0.03621146,30.21363,0.9941025
0.0239055,-0.02791403,0.281988,-0.1373662,0.477629,0.04347051,-0.882418,0.03554416,30.22038,0.9908187
0.0229804,-0.4858226,0.005037132,0.635714,0.4753163,0.04236147,-0.8824538,0.02437976,30.22049,1.005428
0.0288849,-0.03040169,0.01362296,-0.5587789,0.471123,0.04165341,-0.8890064,0.02350161,30.22088,0.9892873
0.0269605,0.8739456,0.06250876,-0.8598791,0.4805374,0.04432909,-0.8810283,0.04706362,30.22257,0.9661046
0.0229313,0.2196474,0.4252859,0.569333,0.4770662,0.04227243,-0.886233,0.05210042,30.23232,0.9791601
0.0248996,0.4167795,0.7785599,0.1830663,0.4726523,0.03966871,-0.8832403,0.06247807,30.25171,0.9837184
0.0229712,-0.2541378,0.4549083,-0.566565,0.4747028,0.039909,-0.8812524,0.05664022,30.26216,0.9707037
0.0278921,-0.9197297,3.647566,-0.6524347,0.4776777,0.04252095,-0.886469,0.03098702,30.3639,0.9525059
0.0259342,-0.7680003,5.239941,-0.7533185,0.4788402,0.04383808,-0.8817878,0.01106955,30.49979,0.9329692
0.029885,-0.1639882,2.08516,-0.2565891,0.4823759,0.04238484,-0.8811419,0.006168763,30.56211,0.9253011
0.029957,0.335445,-0.2299909,0.4689792,0.4795308,0.04357177,-0.8779814,0.01621769,30.55522,0.9393503
0.0249003,-0.3663163,-0.8100219,0.07003836,0.4772516,0.04260531,-0.8810802,0.007096301,30.53505,0.9410943
0.0249694,-0.03359831,-0.8084785,-0.3937441,0.4817732,0.04434438,-0.8824841,0.006257371,30.51486,0.9312627
0.0249319,0.0505621,-0.6262786,0.2544312,0.4817332,0.04480973,-0.8790492,0.00751798,30.49924,0.9376062
0.0239703,-1.088462,-0.1454057,0.4794624,0.4781131,0.04236907,-0.8816842,-0.01857277,30.49576,0.949099
0.0239273,-1.047031,-0.1597216,-0.2956851,0.4777569,0.0429852,-0.8827875,-0.0436254,30.49194,0.9420241
0.0259412,-0.5527899,-0.2376973,-0.4711648,0.4800791,0.04409998,-0.8836096,-0.05796544,30.48577,0.9298015
0.0269194,0.05796218,-0.2392017,0.2517132,0.4800628,0.04409014,-0.8821389,-0.05640513,30.47933,0.9365774
0.0349145,-0.03513016,-0.3536187,0.1564231,0.4767399,0.04112016,-0.8784,-0.05763168,30.46699,0.9420389
0.0269186,-1.16757,-0.4276114,-0.6645223,0.4807885,0.04457926,-0.881759,-0.08906103,30.45547,0.9241509
0.0249081,-1.021976,-0.4705194,-0.2897454,0.4800936,0.04557721,-0.8854379,-0.1145165,30.44375,0.9169339
0.0239711,-0.2704098,-0.2815822,0.1111131,0.4780922,0.04688429,-0.8814082,-0.1209985,30.437,0.9195974
0.0239356,-0.474424,-0.05207642,0.1433491,0.4794366,0.04750395,-0.8818778,-0.1323542,30.43576,0.9230285
0.0219403,-0.4145702,-0.1236669,0.5541383,0.4787177,0.04701893,-0.8828706,-0.1414499,30.43304,0.9351865
0.0239054,-0.05248353,-0.3742596,0.6718792,0.4765084,0.04614393,-0.88131,-0.1427046,30.4241,0.951248
0.0239685,-0.3452892,-0.4841279,0.1691539,0.4756449,0.04588941,-0.8803416,-0.1509806,30.41249,0.9553024
0.0288885,-0.370836,-0.3663768,-0.1051544,0.4770286,0.04518671,-0.8838844,-0.1616935,30.40191,0.9522647
0.0268926,-0.2697183,-0.2264506,0.03361624,0.4771054,0.04491522,-0.8797177,-0.168947,30.39582,0.9531687
0.0279501,-1.088972,-0.3645,-0.1461594,0.4767467,0.04516266,-0.8804558,-0.1993838,30.38563,0.9490835
0.0239442,-0.8611514,-0.5287246,-0.2506162,0.4793547,0.04532487,-0.8847132,-0.2200034,30.37297,0.9430827
0.0239273,-0.2627661,-0.4232986,0.2912076,0.4778628,0.04664725,-0.8826384,-0.2262907,30.36284,0.9500505
0.0219603,-0.3512789,-0.4967716,0.6531131,0.475824,0.04690347,-0.8858484,-0.2340049,30.35193,0.964393
0.0229303,0.4908525,-0.6329131,0.4942849,0.4725376,0.04701495,-0.8865005,-0.2227495,30.33742,0.9757271
0.0219411,1.355242,-0.865396,-0.3272768,0.4749023,0.04722571,-0.8798512,-0.193014,30.31843,0.9685463
0.0299226,0.2817119,-1.056761,-0.2333017,0.4793073,0.04762138,-0.8812657,-0.1845844,30.28681,0.9615653
0.031947,1.246708,-0.6572966,0.646884,0.4759944,0.04668856,-0.890138,-0.1447559,30.26581,0.9822313
0.0258967,1.91926,-0.3601471,0.9691788,0.4768011,0.04402105,-0.8739664,-0.09505336,30.25648,1.00733
0.0239547,-0.9208711,-0.3336698,1.640412,0.4722999,0.04175551,-0.8851914,-0.1171126,30.24849,1.046625
0.0248878,-0.6588588,-0.4673215,0.9316224,0.4690503,0.04152208,-0.8890325,-0.1335101,30.23686,1.069811
0.0219413,1.467939,-0.7322225,-0.8538861,0.4722193,0.04129044,-0.8887503,-0.1013016,30.22079,1.051076
0.0249316,2.373212,-0.5505314,-1.554618,0.479299,0.04394512,-0.8792074,-0.04213364,30.20707,1.012317
0.0229418,0.8188448,-0.2452171,-0.5010439,0.4767628,0.04284729,-0.8810845,-0.02334786,30.20144,1.000822
0.0279325,-0.5389598,-0.3800504,0.4703751,0.4730164,0.04419705,-0.8846755,-0.03840236,30.19083,1.013961
0.0259568,-0.01270553,-0.3981737,0.04358476,0.4722162,0.04238996,-0.8888654,-0.03873216,30.18049,1.015092
0.0249076,1.486402,-0.2990107,-0.7024069,0.4760434,0.03871455,-0.9026954,-0.001709439,30.17304,0.9975969
0.0239686,3.450408,-0.3193398,-0.7208481,0.4765993,0.04458415,-0.8669781,0.08099201,30.16539,0.9803191
0.0258968,-1.046946,-0.07442412,2.492595,0.4711657,0.04001529,-0.8812947,0.05387945,30.16346,1.044869
0.021975,-2.019041,0.08768289,2.666936,0.4673305,0.04170242,-0.8989809,0.009511024,30.16539,1.103475
0.0249356,1.035111,-0.1588272,0.009185685,0.4743562,0.04359019,-0.8842957,0.03532214,30.16143,1.103704
0.0219089,1.265529,-0.05045378,-0.104303,0.4748749,0.04165307,-0.8863866,0.06304847,30.16032,1.101419
0.0268929,1.748223,0.128574,-0.1887603,0.4732555,0.03893322,-0.8823799,0.1100633,30.16378,1.096343
0.0239363,1.481044,0.1315828,-0.1347236,0.4774246,0.0387207,-0.8842919,0.145514,30.16693,1.093118
0.0249677,1.353935,0.229162,0.7727619,0.4717202,0.03663128,-0.8860918,0.1793186,30.17265,1.112412
0.0249308,3.414664,-0.1745209,-1.356383,0.458617,0.03179135,-0.9016069,0.2644489,30.1683,1.078597
0.0219086,3.956772,-0.2838289,-1.826049,0.4661603,0.03235321,-0.8891309,0.3511362,30.16208,1.03859
0.0259304,3.197902,0.003610146,-1.734913,0.4756859,0.03771514,-0.881133,0.4340591,30.16218,0.9936035
0.0239699,2.403339,0.02845188,-1.42241,0.4785951,0.03906368,-0.8799851,0.4916669,30.16286,0.9595085
0.024935,0.7784923,-0.03752615,-0.3921552,0.4742841,0.0362773,-0.8861857,0.5110786,30.16192,0.9497301
0.0219057,0.6009852,-0.04722387,-0.2060345,0.4735282,0.03246585,-0.8826665,0.5242436,30.16089,0.9452168
0.026931,0.3807247,-0.05866247,-0.1399724,0.473555,0.03089114,-0.8845156,0.5344969,30.15931,0.9414472
0.0329193,0.1625924,-0.03731233,-0.08557945,0.4733076,0.03309073,-0.8849937,0.5398493,30.15808,0.93863
0.0309074,0.1488965,-0.06270843,-0.1250066,0.4741495,0.0360244,-0.8849633,0.5444514,30.15615,0.9347664
0.0289229,0.110863,-0.05654805,-0.08407427,0.4735408,0.03712365,-0.8854534,0.5476578,30.15451,0.9323347
0.0249327,0.1789905,-0.06105845,-0.08711294,0.4743906,0.0363909,-0.8848352,0.5521206,30.15299,0.9301627
0.0239701,0.1502531,-0.0587531,-0.03977048,0.4735369,0.03638709,-0.8848457,0.5557222,30.15158,0.9292094
0.0239002,0.1802266,-0.05480195,-0.03791288,0.4739015,0.03602085,-0.8845986,0.5600296,30.15027,0.9283033
0.0259323,0.1929607,-0.04997326,-0.002748175,0.4739088,0.03590287,-0.8852122,0.5650336,30.14898,0.928232
0.0259646,0.1859889,-0.06296144,0.01292662,0.4735491,0.03370221,-0.8849866,0.5698627,30.14734,0.9285676
0.0239253,0.1616822,-0.05118774,0.003486746,0.4741527,0.0332117,-0.8842472,0.5737309,30.14612,0.9286511
0.0199209,0.1567128,-0.0548665,-0.01108041,0.4747701,0.03334142,-0.8849742,0.5768528,30.14502,0.9284304
0.0239008,0.1670402,-0.05345715,-0.03240824,0.4739121,0.03272312,-0.8843761,0.5808452,30.14375,0.9276558
0.0209703,0.1116836,-0.05377292,-0.03297739,0.4740367,0.0327253,-0.8846197,0.5831872,30.14262,0.9269643
0.0219759,0.1013513,-0.05876693,-0.03481328,0.473797,0.03235962,-0.8848703,0.5854145,30.14133,0.9261993
0.0229345,0.1028008,-0.06234299,-0.0364688,0.4735525,0.03284767,-0.8849925,0.5877722,30.1399,0.9253629
0.0239079,0.09051479,-0.05078816,-0.02328717,0.4739191,0.03333925,-0.8852298,0.5899362,30.13868,0.9248061
0.0309534,0.06983037,-0.05089139,-0.02438772,0.4741502,0.03516822,-0.884724,0.5920977,30.13711,0.9240512
0.0289127,0.06722035,-0.05170397,-0.01525129,0.4734282,0.03443659,-0.8853508,0.5940412,30.13561,0.9236103
0.0249053,0.09339496,-0.05709647,-0.003322328,0.4732972,0.03467528,-0.8846152,0.5963672,30.13419,0.9235275
0.0219671,0.1028015,-0.05551068,0.001577565,0.4731758,0.0341856,-0.8844975,0.5986255,30.13297,0.9235622
0.0239364,0.08433008,-0.05281071,-0.01219099,0.4734272,0.03333461,-0.884868,0.6006441,30.1317,0.9232703
0.020994,0.06790883,-0.04476862,-0.01306018,0.4735587,0.03199476,-0.8852434,0.6020697,30.13076,0.9229962
0.0239114,0.05649898,-0.05135231,-0.01910869,0.4733123,0.03260406,-0.8852422,0.6034207,30.12954,0.9225392
0.0259455,0.0169071,-0.05187779,-0.0181491,0.4737995,0.03309537,-0.8853555,0.6038594,30.12819,0.9220684
0.0229424,0.01958508,-0.0541747,-0.03321476,0.4727003,0.0341908,-0.8856065,0.6043087,30.12695,0.9213063
0.0279331,0.02347427,-0.04690529,-0.04513071,0.473546,0.03480172,-0.8851016,0.6049644,30.12564,0.9200457
0.0268913,0.02866314,-0.04163769,-0.05501196,0.4735471,0.03553665,-0.8854643,0.6057352,30.12452,0.9185663
0.0239718,0.03515526,-0.05137025,-0.01188239,0.4734205,0.03602277,-0.8852173,0.606578,30.12328,0.9182815
0.0258944,0.07997677,-0.05173831,0.005255235,0.4732979,0.03516522,-0.884857,0.608649,30.12194,0.9184176
0.0229469,0.1029501,-0.05144215,-0.004128295,0.4735455,0.0349238,-0.8851008,0.6110113,30.12076,0.9183229
0.0239266,0.09683825,-0.05374457,0.01513819,0.4734276,0.03357958,-0.8849889,0.6133283,30.11948,0.9186851
0.0239362,0.07924065,-0.04695659,0.02835137,0.4731871,0.03272395,-0.8849978,0.6152251,30.11835,0.9193637
0.0259679,0.08422147,-0.0430904,0.01869106,0.4735638,0.03138601,-0.8854927,0.6174121,30.11724,0.919849
0.0308832,0.03829188,-0.03538138,-0.02823218,0.473556,0.03199312,-0.8849983,0.6185947,30.11614,0.9189771
0.02995,-0.01584769,-0.04190551,-0.03348127,0.4730716,0.03248253,-0.8854912,0.6181201,30.11489,0.9179744
0.0309176,-0.01559172,-0.0339116,-0.04741145,0.4731866,0.03455922,-0.885598,0.617638,30.11384,0.9165085
0.0249419,-0.02525354,-0.04071954,-0.05572717,0.4735455,0.0349238,-0.8851008,0.6170081,30.11282,0.9151186
0.0269229,-0.01568711,-0.03455865,-0.03829245,0.4736622,0.03590015,-0.8849701,0.6165858,30.11189,0.9140877
0.0249326,0.05435529,-0.04784758,-0.02361861,0.4734231,0.03639146,-0.8855825,0.617941,30.1107,0.9134988
0.0239719,0.07865749,-0.03627083,-0.002546032,0.4736685,0.03602632,-0.885582,0.6198266,30.10983,0.9134377
0.0279196,0.1309993,-0.03233421,0.04268236,0.4730607,0.03418916,-0.8851117,0.6234841,30.10893,0.9146294
0.0269315,0.1578255,-0.03371225,0.05987995,0.4730591,0.03357631,-0.8847483,0.6277345,30.10802,0.9162421
0.0229057,0.1323603,-0.04163944,0.03895656,0.4725813,0.03174461,-0.8850119,0.6307663,30.10707,0.9171344
0.0249317,0.09268717,-0.04043241,0.03001085,0.4733146,0.03101459,-0.8848854,0.6330772,30.10606,0.9178826
0.0219755,0.06097724,-0.03540247,0.007925557,0.4730791,0.03028432,-0.8853837,0.6344172,30.10528,0.9180568
0.0239365,-0.007187831,-0.03373675,-0.01841093,0.4736873,0.03102032,-0.8854938,0.6342452,30.10447,0.9176161
0.022939,-0.05357851,-0.03665905,-0.03808975,0.4731924,0.03174815,-0.885127,0.6330161,30.10363,0.9167423
0.0229056,-0.07193417,-0.0289418,-0.06422327,0.4729502,0.03235991,-0.8854935,0.6313684,30.10297,0.9152712
0.0219425,-0.05309211,-0.02690719,-0.06818718,0.4724506,0.03394146,-0.8849983,0.6302034,30.10238,0.913775
0.0279577,-0.03469435,-0.03584047,-0.05816716,0.4731842,0.03480255,-0.8854738,0.6292335,30.10138,0.9121488
0.0248986,-0.01216233,-0.03268797,-0.05373777,0.4730496,0.03626283,-0.8848525,0.6289306,30.10056,0.9108108
0.0229644,-0.008405466,-0.03389082,-0.03129873,0.4729322,0.03614267,-0.8852224,0.6287376,30.09978,0.9100921
0.021952,0.02633155,-0.02936447,-0.02192648,0.4724493,0.03491972,-0.8852367,0.6293157,30.09914,0.9096107
0.0248975,0.03060132,-0.02834792,-0.0172731,0.4731767,0.0343085,-0.8846192,0.6300775,30.09843,0.9091807
0.030919,0.08763376,-0.02566085,0.02136913,0.4730821,0.03224412,-0.8863508,0.6327871,30.09764,0.9098414
0.0339332,0.05793256,-0.03243626,0.03826057,0.4730774,0.03138466,-0.8856212,0.6347529,30.09654,0.9111397
0.0298926,0.03937281,-0.0334169,0.006866376,0.4735499,0.03247897,-0.8846273,0.6359299,30.09554,0.911345
0.0299237,0.03766456,-0.03668295,-0.02287003,0.4729388,0.03247543,-0.8845122,0.6370569,30.09444,0.9106606
0.0249569,-0.05333355,-0.02082739,-0.01402994,0.4728294,0.03272724,-0.8857375,0.6357259,30.09392,0.9103105
0.0219398,0.0004889669,-0.0254465,-0.05136326,0.4735556,0.03309428,-0.8853585,0.6357366,30.09336,0.9091836
0.0249351,-0.03056388,-0.02759816,-0.04333417,0.4728118,0.03540884,-0.8851064,0.6349745,30.09267,0.9081031
0.0239457,-0.01162031,-0.02656283,-0.05378683,0.4731829,0.03480173,-0.8853512,0.6346963,30.09204,0.9068152
0.025922,-0.0138466,-0.02559589,-0.02567691,0.473191,0.03480665,-0.8860865,0.6343374,30.09137,0.9061496
0.022913,0.01081012,-0.02027442,-0.004597446,0.472948,0.03358233,-0.8857302,0.6345851,30.09091,0.9060442
0.0259512,0.02575559,-0.01780441,-0.002242594,0.4729422,0.0346802,-0.8856001,0.6352535,30.09045,0.9059861
0.0249465,0.03449542,-0.01894784,-0.002667816,0.472824,0.03407009,-0.8857284,0.636114,30.08997,0.9059195
0.0239009,0.0331668,-0.02463943,0.007888212,0.4731961,0.03321882,-0.8859748,0.6369067,30.08938,0.906108
0.0249352,0.04656326,-0.01770974,0.01827548,0.4730713,0.03358369,-0.8858513,0.6380678,30.08894,0.9065637
0.0219741,0.05354399,-0.02048699,0.004954502,0.4725817,0.03333572,-0.8856138,0.6392444,30.08849,0.9066726
0.0229413,0.02721696,-0.02428364,-0.01027589,0.4729449,0.03333571,-0.8853642,0.6398688,30.08793,0.9064369
0.0219412,0.000727027,-0.03000977,-0.0111844,0.4725842,0.03272533,-0.885618,0.6398848,30.08728,0.9061915
0.0219413,0.006026368,-0.02646694,-0.006012245,0.4722157,0.03235501,-0.8852572,0.640017,30.0867,0.9060596
0.0199804,0.004061873,-0.02790852,-0.02288384,0.472327,0.03332807,-0.8846363,0.6400982,30.08614,0.9056023
0.0248989,-0.03037426,-0.02182812,-0.0501029,0.4730645,0.03357959,-0.8852385,0.6393419,30.0856,0.9043548
0.0239748,-0.04033676,-0.01516945,-0.04231193,0.4727055,0.033215,-0.8857357,0.6383748,30.08523,0.9033404
0.0269131,0.2153998,-0.1069137,-0.04653762,0.4699748,0.03373672,-0.8926296,0.6441719,30.08235,0.9020879
0.0249355,1.178118,-0.3492559,-0.4599236,0.4758586,0.03456463,-0.8845848,0.6735489,30.07364,0.8906195
0.0239465,1.773297,-0.5405445,-0.4266915,0.472219,0.0335807,-0.8859842,0.7160131,30.0607,0.8804017
0.0229292,0.7405986,-0.312106,-0.1282955,0.4763793,0.03267797,-0.8758885,0.7329944,30.05354,0.87746
0.0239427,-1.743417,0.3196061,0.4816192,0.4706384,0.03137377,-0.885651,0.6912524,30.0612,0.8889913
0.0219408,-1.796412,0.4397062,0.4591808,0.4685107,0.03287318,-0.8922857,0.6518376,30.07084,0.8990661
0.0269299,-0.04204886,0.07946086,-0.1358014,0.4757351,0.03395124,-0.8842228,0.6507053,30.07298,0.895409
0.0288861,0.01203493,0.02134337,0.04056563,0.4715782,0.03228625,-0.8937234,0.6510529,30.0736,0.8965808
0.0269579,2.113769,-0.3911963,-0.515841,0.4695459,0.03247331,-0.8865148,0.7080356,30.06306,0.8826748
0.0239368,2.370053,-0.3615748,-0.9064968,0.4740348,0.03321361,-0.8846164,0.7647671,30.0544,0.8609761
0.0239301,2.627674,-0.3556986,-0.4314801,0.4710514,0.029813,-0.8893341,0.8276476,30.04589,0.8506507
0.0259047,2.508073,-0.3677468,-0.2557172,0.4707451,0.02940714,-0.8835795,0.8926185,30.03636,0.8440264
0.0239712,3.373569,-0.2279852,-1.266693,0.4741201,0.0301327,-0.8802238,0.973487,30.0309,0.8136623
0.0239019,2.866349,-0.05446842,-0.6309984,0.4746966,0.02871997,-0.8877037,1.041998,30.02959,0.7985802
0.0239727,3.718278,-0.09420037,-0.07562842,0.4705734,0.02736927,-0.8893567,1.131135,30.02733,0.7967672
0.0279554,3.905135,-0.422592,-0.280831,0.4787987,0.02606879,-0.8717371,1.240305,30.01552,0.7889165
0.0249013,-0.4085326,-1.104498,1.538613,0.4704678,0.02485802,-0.8789563,1.230132,29.98802,0.8272299
0.0229727,-3.247256,-1.173453,1.985911,0.4719918,0.02502353,-0.8844526,1.155534,29.96106,0.8728517
0.0249239,-3.004889,0.1113149,1.692164,0.4651467,0.02738168,-0.8949387,1.08064,29.96383,0.915027
0.0249333,1.819345,1.045085,-0.6330431,0.4599486,0.02391014,-0.9088772,1.126002,29.98989,0.8992432
0.0289568,11.61114,0.04805293,-5.070268,0.4600989,0.0234876,-0.9002978,1.462224,29.99129,0.7524244
0.0248998,5.838526,-1.272894,-5.685122,0.4963839,0.02679916,-0.8409962,1.607602,29.95959,0.610866
0.0269281,-3.559006,-0.9684014,0.644145,0.4576402,0.01577911,-0.9177869,1.511765,29.93351,0.6282116
0.0279268,8.732532,0.496513,-2.221647,0.4627186,0.01614278,-0.9139227,1.755636,29.94738,0.5661681
0.0229389,17.2044,0.2948862,-4.883829,0.4657543,0.01206256,-0.8673345,2.150286,29.95414,0.4541385
0.0249387,7.997314,-0.4988413,-3.708671,0.4974947,0.01335094,-0.8373982,2.349729,29.9417,0.361649
0.0249386,-6.054016,0.7317758,6.887759,0.4838263,0.01528963,-0.8813112,2.19875,29.95995,0.5334201
0.0258967,-7.433999,-0.04566313,10.11892,0.4506457,0.01014198,-0.9009953,2.006234,29.95877,0.7954668
